run_id,case_name,cargo_count,total_mass_kg,secured_frac,Time,PosX,PosY,PosZ,VelX,VelY,VelZ,SpeedKmh,AccX,AccY,AccZ,LongAcc,LatAcc,VertAcc,Roll,Pitch,Yaw,RollRate,PitchRate,YawRate,AngVelX,AngVelY,AngVelZ,AngAccX,AngAccY,AngAccZ,SteerAngle,TargetSteer,Throttle,Brake,FL_Grounded,FR_Grounded,RL_Grounded,RR_Grounded,FL_ForwardSlip,FR_ForwardSlip,RL_ForwardSlip,RR_ForwardSlip,FL_SideSlip,FR_SideSlip,RL_SideSlip,RR_SideSlip,MaxForwardSlip,MaxSideSlip,RolloverRisk,IsRollover
20260703_211105,case01_boxes_2layer,6,62.2,1.000,0.647,679.389,-1.491,736.107,-0.188,0.466,-0.005,1.809,-1.902,0.993,0.115,1.903,0.111,0.991,-0.205,-0.088,-89.994,-0.535,0.150,0.060,0.010,0.003,0.004,0.003,0.031,0.028,14.334,0.381,1.000,0.000,1,1,1,1,-0.005,-0.002,0.647,0.806,-0.009,-0.006,-0.003,-0.003,0.806,0.009,0.000,0
20260703_211105,case01_boxes_2layer,6,62.2,1.000,0.755,679.355,-1.444,736.108,-0.426,0.380,0.021,2.057,-2.382,-0.859,0.256,2.382,0.259,-0.860,-0.259,-0.045,-89.961,-0.540,0.428,0.332,0.008,0.008,0.009,-0.020,0.045,0.049,14.514,0.386,1.000,0.000,1,1,1,1,-0.009,-0.003,0.471,-1.242,-0.014,-0.008,-0.003,-0.003,1.242,0.014,0.000,0
20260703_211105,case01_boxes_2layer,6,62.2,1.000,0.858,679.299,-1.412,736.112,-0.633,0.226,0.045,2.426,-2.073,-1.540,0.242,2.074,0.247,-1.538,-0.295,0.020,-89.904,-0.362,0.652,0.568,0.005,0.012,0.012,-0.028,0.039,0.028,14.504,0.386,1.000,0.000,1,1,1,1,-0.008,-0.003,0.183,-0.383,-0.014,-0.007,-0.003,-0.003,0.383,0.014,0.000,0
20260703_211105,case01_boxes_2layer,6,62.2,1.000,0.963,679.220,-1.398,736.118,-0.874,0.063,0.072,3.164,-2.407,-1.628,0.263,2.411,0.265,-1.623,-0.314,0.094,-89.825,-0.190,0.743,0.797,0.002,0.015,0.012,-0.029,0.038,-0.001,14.262,0.381,1.000,0.000,1,1,1,1,-0.005,0.000,0.181,0.531,-0.012,-0.003,-0.004,-0.004,0.531,0.012,0.000,0
20260703_211105,case01_boxes_2layer,6,62.2,1.000,1.077,679.107,-1.397,736.128,-1.101,-0.044,0.095,3.983,-2.276,-1.072,0.229,2.280,0.224,-1.064,-0.318,0.163,-89.713,-0.040,0.689,1.119,0.000,0.019,0.009,-0.022,0.034,-0.035,13.521,0.362,1.000,0.000,1,1,1,1,-0.006,-0.003,0.164,-0.321,-0.012,-0.003,-0.003,-0.003,0.321,0.012,0.000,0
20260703_211105,case01_boxes_2layer,6,62.2,1.000,1.182,678.979,-1.405,736.139,-1.340,-0.087,0.116,4.854,-2.391,-0.431,0.212,2.394,0.197,-0.422,-0.311,0.200,-89.593,0.068,0.367,1.201,-0.002,0.022,0.003,-0.013,0.028,-0.051,13.048,0.351,1.000,0.000,1,1,1,1,-0.005,-0.002,0.155,0.033,-0.011,-0.002,-0.003,-0.003,0.155,0.011,0.000,0
20260703_211105,case01_boxes_2layer,6,62.2,1.000,1.286,678.828,-1.414,736.152,-1.548,-0.085,0.133,5.603,-2.080,0.022,0.176,2.082,0.157,0.030,-0.299,0.206,-89.457,0.121,0.062,1.354,-0.002,0.024,-0.001,-0.006,0.024,-0.048,12.492,0.337,1.000,0.000,1,1,1,1,-0.005,-0.003,0.142,-0.168,-0.010,-0.001,-0.002,-0.003,0.168,0.010,0.000,0
20260703_211105,case01_boxes_2layer,6,62.2,1.000,1.390,678.655,-1.421,736.166,-1.760,-0.062,0.148,6.364,-2.120,0.225,0.151,2.121,0.124,0.232,-0.285,0.186,-89.310,0.144,-0.199,1.477,-0.003,0.026,-0.005,-0.003,0.017,-0.036,11.734,0.318,1.000,0.000,1,1,1,1,-0.005,-0.003,0.138,-0.115,-0.009,0.000,-0.002,-0.003,0.138,0.009,0.000,0
20260703_211105,case01_boxes_2layer,6,62.2,1.000,1.502,678.443,-1.426,736.184,-2.014,-0.030,0.167,7.274,-2.531,0.322,0.183,2.533,0.143,0.329,-0.268,0.146,-89.139,0.167,-0.396,1.702,-0.003,0.027,-0.007,-0.002,0.018,-0.020,10.867,0.296,1.000,0.000,1,1,1,1,-0.005,-0.002,0.136,-0.022,-0.006,0.002,-0.003,-0.003,0.136,0.006,0.000,0
20260703_211105,case01_boxes_2layer,6,62.2,1.000,1.606,678.224,-1.428,736.202,-2.224,-0.009,0.179,8.031,-2.101,0.207,0.126,2.103,0.087,0.212,-0.252,0.105,-88.974,0.161,-0.416,1.653,-0.003,0.028,-0.007,-0.002,0.007,0.002,10.129,0.277,1.000,0.000,1,1,1,1,-0.005,-0.002,0.136,0.081,-0.006,0.001,-0.003,-0.003,0.136,0.006,0.000,0
20260703_211105,case01_boxes_2layer,6,62.2,1.000,1.710,677.982,-1.429,736.221,-2.431,0.003,0.195,8.779,-2.072,0.124,0.161,2.075,0.117,0.127,-0.235,0.068,-88.804,0.168,-0.366,1.705,-0.003,0.029,-0.005,0.000,0.012,0.014,9.770,0.268,1.000,0.000,1,1,1,1,-0.005,-0.002,0.135,0.089,-0.007,0.000,-0.003,-0.003,0.135,0.007,0.000,0
20260703_211105,case01_boxes_2layer,6,62.2,1.000,1.810,677.726,-1.428,736.242,-2.637,0.008,0.210,9.524,-2.063,0.053,0.151,2.066,0.101,0.055,-0.219,0.043,-88.632,0.165,-0.250,1.713,-0.003,0.030,-0.003,-0.001,0.007,0.020,9.115,0.252,1.000,0.000,1,1,1,1,-0.005,-0.002,0.135,0.088,-0.005,0.001,-0.003,-0.003,0.135,0.005,0.000,0
20260703_211105,case01_boxes_2layer,6,62.2,1.000,1.910,677.451,-1.427,736.264,-2.863,0.009,0.229,10.339,-2.256,0.010,0.183,2.260,0.123,0.012,-0.202,0.031,-88.457,0.168,-0.126,1.749,-0.003,0.031,-0.001,0.000,0.009,0.023,8.456,0.234,1.000,0.000,1,1,1,1,-0.005,-0.002,0.135,0.087,-0.003,0.003,-0.003,-0.003,0.135,0.003,0.000,0
20260703_211105,case01_boxes_2layer,6,62.2,1.000,2.014,677.145,-1.426,736.288,-3.067,0.009,0.245,11.076,-2.044,-0.008,0.158,2.047,0.096,-0.007,-0.184,0.030,-88.273,0.174,-0.011,1.841,-0.003,0.031,0.001,0.001,0.004,0.018,8.097,0.225,1.000,0.000,1,1,1,1,-0.005,-0.002,0.135,0.087,-0.004,0.001,-0.003,-0.003,0.135,0.004,0.000,0
20260703_211105,case01_boxes_2layer,6,62.2,1.000,2.114,676.827,-1.425,736.313,-3.271,0.008,0.260,11.811,-2.036,-0.009,0.154,2.040,0.087,-0.007,-0.168,0.037,-88.094,0.164,0.076,1.796,-0.003,0.031,0.002,0.001,0.001,0.012,7.522,0.210,1.000,0.000,1,1,1,1,-0.005,-0.002,0.136,0.087,-0.003,0.002,-0.003,-0.003,0.136,0.003,0.000,0
20260703_211105,case01_boxes_2layer,6,62.2,1.000,2.222,676.462,-1.425,736.342,-3.494,0.007,0.277,12.617,-2.230,-0.006,0.173,2.235,0.091,-0.003,-0.151,0.051,-87.900,0.169,0.137,1.939,-0.003,0.031,0.003,0.002,-0.001,0.006,6.951,0.195,1.000,0.000,1,1,1,1,-0.004,-0.002,0.136,0.088,-0.002,0.002,-0.003,-0.003,0.136,0.003,0.000,0
20260703_211105,case01_boxes_2layer,6,62.2,1.000,2.330,676.074,-1.424,736.373,-3.695,0.007,0.293,13.345,-2.018,-0.004,0.161,2.023,0.081,-0.001,-0.135,0.066,-87.707,0.156,0.152,1.924,-0.002,0.031,0.002,0.002,-0.002,-0.001,6.448,0.182,1.000,0.000,1,1,1,1,-0.004,-0.002,0.137,0.088,-0.001,0.003,-0.003,-0.004,0.137,0.004,0.000,0
20260703_211105,case01_boxes_2layer,6,62.2,1.000,2.442,675.646,-1.423,736.407,-3.936,0.006,0.312,14.216,-2.411,-0.008,0.187,2.417,0.082,-0.005,-0.121,0.080,-87.510,0.143,0.138,1.977,-0.002,0.030,0.002,0.003,-0.007,-0.005,5.709,0.162,1.000,0.000,1,1,1,1,-0.004,-0.002,0.137,0.088,0.002,0.005,-0.004,-0.004,0.137,0.005,0.000,0
20260703_211105,case01_boxes_2layer,6,62.2,1.000,2.550,675.211,-1.422,736.441,-4.137,0.005,0.326,14.938,-2.001,-0.012,0.142,2.006,0.048,-0.009,-0.109,0.089,-87.326,0.121,0.094,1.835,-0.002,0.029,0.001,0.002,-0.010,-0.007,5.293,0.151,1.000,0.000,1,1,1,1,-0.004,-0.002,0.137,0.088,0.001,0.004,-0.004,-0.004,0.137,0.004,0.000,0
20260703_211105,case01_boxes_2layer,6,62.2,1.000,2.658,674.750,-1.422,736.478,-4.355,0.003,0.345,15.728,-2.186,-0.019,0.187,2.193,0.078,-0.015,-0.099,0.094,-87.147,0.101,0.050,1.797,-0.001,0.029,0.001,0.003,-0.007,-0.007,4.901,0.140,1.000,0.000,1,1,1,1,-0.004,-0.002,0.137,0.088,0.001,0.003,-0.004,-0.004,0.137,0.004,0.000,0
20260703_211105,case01_boxes_2layer,6,62.2,1.000,2.758,674.304,-1.422,736.513,-4.553,0.001,0.363,16.442,-1.977,-0.019,0.175,1.983,0.071,-0.016,-0.092,0.095,-86.985,0.072,0.009,1.617,-0.001,0.028,0.000,0.003,-0.007,-0.006,4.555,0.131,1.000,0.000,1,1,1,1,-0.004,-0.002,0.136,0.088,0.001,0.003,-0.004,-0.004,0.136,0.004,0.000,0
20260703_211105,case01_boxes_2layer,6,62.2,1.000,2.866,673.801,-1.422,736.553,-4.769,-0.001,0.383,17.224,-2.162,-0.019,0.202,2.170,0.082,-0.015,-0.086,0.093,-86.815,0.054,-0.020,1.699,-0.001,0.027,0.000,0.004,-0.007,-0.004,4.211,0.121,1.000,0.000,1,1,1,1,-0.004,-0.002,0.136,0.088,0.001,0.003,-0.004,-0.004,0.136,0.004,0.000,0
20260703_211105,case01_boxes_2layer,6,62.2,1.000,2.978,673.254,-1.422,736.597,-4.984,-0.002,0.403,18.001,-2.150,-0.013,0.206,2.158,0.080,-0.010,-0.083,0.089,-86.643,0.030,-0.041,1.715,0.000,0.026,-0.001,0.004,-0.008,-0.002,3.885,0.108,1.000,0.000,1,1,1,1,-0.004,-0.002,0.135,0.088,0.001,0.002,-0.004,-0.004,0.135,0.004,0.000,0
20260703_211105,case01_boxes_2layer,6,62.2,1.000,3.086,672.706,-1.422,736.642,-5.172,-0.001,0.421,18.682,-1.881,0.008,0.173,1.888,0.057,0.010,-0.083,0.084,-86.484,0.005,-0.052,1.590,0.000,0.025,-0.001,0.003,-0.010,-0.004,3.430,0.100,1.000,0.000,1,1,1,1,-0.002,-0.480,0.028,0.540,0.004,0.006,-0.004,-0.004,0.540,0.006,0.000,0
20260703_211105,case01_boxes_2layer,6,62.2,1.000,3.186,672.175,-1.422,736.685,-5.388,-0.002,0.441,19.461,-2.157,-0.010,0.202,2.165,0.064,-0.007,-0.084,0.079,-86.341,-0.014,-0.048,1.430,0.000,0.024,-0.001,0.003,-0.018,0.005,3.167,0.093,1.000,0.000,1,1,1,1,-0.014,-0.521,-0.012,0.398,0.003,0.004,-0.004,-0.004,0.521,0.004,0.000,0
20260703_211105,case01_boxes_2layer,6,62.2,1.000,3.290,671.608,-1.423,736.732,-5.528,-0.003,0.457,19.969,-1.401,-0.001,0.158,1.408,0.064,0.001,-0.087,0.075,-86.200,-0.031,-0.036,1.410,0.001,0.024,-0.001,0.002,0.004,-0.006,2.913,0.086,0.990,0.000,1,1,1,1,-0.015,-0.479,0.014,-0.470,0.001,0.002,-0.003,-0.003,0.479,0.003,0.000,0
20260703_211105,case01_boxes_2layer,6,62.2,1.000,3.394,671.016,-1.423,736.781,-5.825,-0.002,0.485,21.043,-2.972,0.003,0.285,2.984,0.080,0.007,-0.092,0.074,-86.065,-0.046,-0.018,1.354,0.001,0.021,0.000,0.004,-0.027,0.016,2.545,0.075,0.970,0.000,1,1,1,1,-0.001,0.359,0.227,0.330,0.004,0.005,-0.004,-0.004,0.359,0.005,0.000,0
20260703_211105,case01_boxes_2layer,6,62.2,1.000,3.506,670.359,-1.423,736.836,-5.955,-0.001,0.499,21.514,-1.300,0.008,0.143,1.307,0.050,0.010,-0.098,0.072,-85.927,-0.062,-0.012,1.378,0.001,0.021,0.000,0.001,-0.002,-0.009,2.328,0.069,0.939,0.000,1,1,1,1,-0.001,-0.363,0.042,0.550,0.004,0.005,-0.004,-0.004,0.550,0.005,0.000,0
20260703_211105,case01_boxes_2layer,6,62.2,1.000,3.610,669.723,-1.423,736.890,-6.157,-0.001,0.521,22.246,-2.022,0.006,0.215,2.033,0.067,0.009,-0.105,0.072,-85.807,-0.066,-0.004,1.207,0.001,0.020,0.000,0.001,-0.012,0.002,1.910,0.057,0.909,0.000,1,1,1,1,-0.002,0.349,0.200,-0.357,0.005,0.006,-0.004,-0.004,0.357,0.006,0.000,0
20260703_211105,case01_boxes_2layer,6,62.2,1.000,3.726,668.997,-1.423,736.951,-6.355,-0.001,0.539,22.962,-1.980,0.003,0.179,1.988,0.030,0.005,-0.112,0.071,-85.683,-0.075,-0.007,1.234,0.001,0.017,0.000,0.000,-0.024,0.002,1.749,0.052,0.881,0.000,1,1,1,1,-0.011,-0.343,0.055,0.229,0.003,0.004,-0.004,-0.004,0.343,0.004,0.000,0
20260703_211105,case01_boxes_2layer,6,62.2,1.000,3.834,668.303,-1.423,737.010,-6.550,-0.001,0.560,23.665,-1.943,0.000,0.209,1.954,0.059,0.002,-0.119,0.070,-85.578,-0.068,-0.009,1.051,0.001,0.016,0.000,0.000,-0.015,0.002,1.519,0.045,0.864,0.000,1,1,1,1,0.007,0.334,0.178,0.505,0.005,0.006,-0.005,-0.005,0.505,0.006,0.000,0
20260703_211105,case01_boxes_2layer,6,62.2,1.000,3.942,667.588,-1.423,737.072,-6.652,-0.001,0.573,24.036,-1.023,-0.001,0.133,1.030,0.052,0.000,-0.126,0.069,-85.481,-0.066,-0.011,0.971,0.001,0.016,-0.001,-0.002,0.003,-0.011,1.394,0.040,0.827,0.000,1,1,1,1,-0.011,-0.321,0.071,-0.369,0.002,0.002,-0.003,-0.003,0.369,0.003,0.000,0
20260703_211105,case01_boxes_2layer,6,62.2,1.000,4.331,664.876,-1.424,737.308,-7.277,-0.002,0.643,26.299,-6.248,-0.009,0.701,6.285,0.174,-0.002,-0.144,0.060,-85.185,-0.183,-0.089,2.957,0.001,0.011,0.000,-0.004,-0.056,0.010,0.812,0.025,0.758,0.000,1,1,1,1,0.004,0.277,0.121,0.389,0.005,0.005,-0.004,-0.004,0.389,0.005,0.000,0
20260703_211105,case01_boxes_2layer,6,62.2,1.000,4.434,664.124,-1.424,737.375,-7.403,-0.002,0.658,26.758,-1.267,0.001,0.148,1.275,0.040,0.003,-0.147,0.058,-85.121,-0.028,-0.027,0.647,0.000,0.010,0.000,-0.002,-0.009,0.000,0.729,0.022,0.738,0.000,1,1,1,1,0.001,0.262,0.122,0.203,0.004,0.004,-0.004,-0.004,0.262,0.004,0.000,0
20260703_211105,case01_boxes_2layer,6,62.2,1.000,4.538,663.354,-1.424,737.444,-7.528,-0.001,0.673,27.210,-1.248,0.002,0.147,1.256,0.039,0.003,-0.148,0.055,-85.061,-0.018,-0.026,0.598,0.000,0.009,0.000,-0.002,-0.009,0.001,0.609,0.019,0.722,0.000,1,1,1,1,0.003,0.252,0.121,0.367,0.005,0.005,-0.004,-0.004,0.367,0.005,0.000,0
20260703_211105,case01_boxes_2layer,6,62.2,1.000,4.641,662.571,-1.424,737.514,-7.601,-0.001,0.683,27.473,-0.724,0.004,0.101,0.730,0.038,0.005,-0.149,0.053,-85.006,-0.008,-0.024,0.549,0.000,0.009,-0.001,-0.003,0.006,-0.008,0.501,0.015,0.694,0.000,1,1,1,1,-0.008,-0.240,0.073,-0.141,0.003,0.003,-0.003,-0.003,0.240,0.003,0.000,0
20260703_211105,case01_boxes_2layer,6,62.2,1.000,4.754,661.705,-1.424,737.592,-7.778,-0.001,0.702,28.116,-1.777,0.003,0.195,1.787,0.038,0.004,-0.149,0.050,-84.951,0.003,-0.024,0.544,0.000,0.007,0.000,-0.001,-0.022,0.009,0.435,0.012,0.685,0.000,1,1,1,1,0.003,0.225,0.116,0.404,0.004,0.004,-0.003,-0.003,0.404,0.004,0.000,0
20260703_211105,case01_boxes_2layer,6,62.2,1.000,4.854,660.924,-1.424,737.662,-7.892,0.000,0.716,28.528,-1.136,0.003,0.131,1.143,0.030,0.004,-0.148,0.049,-84.908,0.012,-0.016,0.435,0.000,0.006,0.000,-0.001,-0.008,0.001,0.349,0.011,0.667,0.000,1,1,1,1,0.001,0.208,0.110,0.257,0.004,0.004,-0.003,-0.003,0.257,0.004,0.000,0
20260703_211105,case01_boxes_2layer,6,62.2,1.000,4.969,660.009,-1.425,737.745,-7.958,0.000,0.724,28.767,-0.659,0.003,0.089,0.664,0.029,0.004,-0.145,0.047,-84.863,0.024,-0.017,0.454,0.000,0.007,0.000,-0.002,0.005,-0.007,0.269,0.008,0.644,0.000,1,1,1,1,-0.007,-0.190,0.072,-0.112,0.003,0.003,-0.002,-0.002,0.190,0.003,0.000,0
20260703_211105,case01_boxes_2layer,6,62.2,1.000,5.073,659.173,-1.425,737.822,-8.110,0.000,0.741,29.319,-1.525,0.001,0.167,1.534,0.029,0.003,-0.142,0.046,-84.826,0.030,-0.013,0.364,-0.001,0.005,0.000,-0.001,-0.017,0.007,0.206,0.006,0.636,0.000,1,1,1,1,0.003,0.165,0.104,0.411,0.004,0.004,-0.003,-0.003,0.411,0.004,0.000,0
20260703_211105,case01_boxes_2layer,6,62.2,1.000,5.201,658.130,-1.424,737.917,-8.197,0.000,0.752,29.632,-0.865,0.002,0.110,0.871,0.031,0.002,-0.138,0.044,-84.786,0.044,-0.013,0.398,-0.001,0.006,0.000,-0.002,0.003,-0.006,0.142,0.004,0.610,0.000,1,1,1,1,-0.006,-0.124,0.071,-0.137,0.003,0.003,-0.002,-0.002,0.137,0.003,0.000,0
20260703_211105,case01_boxes_2layer,6,62.2,1.000,5.302,657.300,-1.424,737.993,-8.281,0.000,0.762,29.938,-0.843,0.000,0.099,0.849,0.021,0.001,-0.134,0.043,-84.759,0.039,-0.010,0.279,-0.001,0.005,-0.001,-0.001,-0.003,-0.001,0.096,0.003,0.596,0.000,1,1,1,1,-0.006,-0.074,0.072,-0.270,0.003,0.003,-0.002,-0.002,0.270,0.003,0.000,0
20260703_211105,case01_boxes_2layer,6,62.2,1.000,5.402,656.465,-1.424,738.070,-8.382,0.000,0.773,30.302,-1.006,0.000,0.113,1.012,0.020,0.000,-0.130,0.042,-84.733,0.042,-0.011,0.252,-0.001,0.004,0.000,0.000,-0.007,0.002,0.060,0.002,0.584,0.000,1,1,1,1,-0.005,-0.029,0.071,-0.165,0.003,0.003,-0.002,-0.002,0.165,0.003,0.000,0
20260703_211105,case01_boxes_2layer,6,62.2,1.000,5.514,655.523,-1.424,738.157,-8.509,0.000,0.787,30.763,-1.273,-0.001,0.138,1.280,0.020,0.000,-0.125,0.041,-84.708,0.048,-0.013,0.252,-0.001,0.003,0.000,0.000,-0.012,0.005,0.023,0.001,0.576,0.000,1,1,1,1,0.002,0.015,0.090,0.376,0.003,0.003,-0.003,-0.003,0.376,0.003,0.000,0
20260703_211105,case01_boxes_2layer,6,62.2,1.000,5.626,654.564,-1.424,738.246,-8.561,0.000,0.794,30.953,-0.525,0.000,0.068,0.529,0.019,0.000,-0.120,0.039,-84.686,0.048,-0.013,0.225,-0.001,0.004,0.000,0.000,0.005,-0.006,-0.006,0.000,0.557,0.000,1,1,1,1,-0.005,-0.014,0.069,-0.242,0.002,0.002,-0.002,-0.002,0.242,0.002,0.000,0
20260703_211105,case01_boxes_2layer,6,62.2,1.000,5.734,653.636,-1.424,738.332,-8.689,0.000,0.807,31.417,-1.280,-0.001,0.136,1.287,0.016,0.000,-0.116,0.038,-84.666,0.045,-0.013,0.193,-0.001,0.002,0.000,0.001,-0.013,0.006,-0.030,-0.001,0.549,0.000,1,1,1,1,0.001,0.012,0.086,0.335,0.003,0.003,-0.002,-0.002,0.335,0.003,0.000,0
20260703_211105,case01_boxes_2layer,6,62.2,1.000,5.834,652.763,-1.424,738.413,-8.765,0.000,0.816,31.691,-0.757,0.000,0.085,0.762,0.014,0.000,-0.112,0.037,-84.650,0.039,-0.012,0.161,-0.001,0.002,0.000,0.001,-0.003,0.000,-0.048,-0.002,0.538,0.000,1,1,1,1,0.001,0.012,0.084,0.345,0.003,0.003,-0.002,-0.002,0.345,0.003,0.000,0
20260703_211105,case01_boxes_2layer,6,62.2,1.000,5.937,651.852,-1.424,738.498,-8.839,0.000,0.824,31.959,-0.739,0.000,0.083,0.743,0.014,0.000,-0.108,0.036,-84.635,0.036,-0.011,0.150,-0.001,0.002,0.000,0.001,-0.003,0.000,-0.074,-0.002,0.528,0.000,1,1,1,1,0.001,0.011,0.082,0.337,0.003,0.003,-0.002,-0.002,0.337,0.003,0.000,0
20260703_211105,case01_boxes_2layer,6,62.2,1.000,6.042,650.925,-1.424,738.585,-8.879,0.000,0.830,32.104,-0.402,0.000,0.052,0.405,0.014,0.000,-0.105,0.035,-84.622,0.032,-0.012,0.138,-0.001,0.003,0.000,0.000,0.007,-0.006,-0.091,-0.003,0.511,0.000,1,1,1,1,-0.004,-0.011,0.064,-0.221,0.002,0.002,-0.002,-0.002,0.221,0.002,0.000,0
20260703_211105,case01_boxes_2layer,6,62.2,1.000,6.150,649.965,-1.424,738.675,-8.948,0.000,0.837,32.352,-0.683,0.000,0.077,0.688,0.012,0.000,-0.102,0.033,-84.609,0.027,-0.013,0.130,0.000,0.002,0.000,0.001,-0.002,0.000,-0.097,-0.003,0.501,0.000,1,1,1,1,-0.004,-0.011,0.063,-0.222,0.002,0.002,-0.002,-0.002,0.222,0.002,0.000,0
20260703_211105,case01_boxes_2layer,6,62.2,1.000,6.250,649.064,-1.424,738.759,-9.014,0.000,0.845,32.591,-0.659,0.000,0.074,0.663,0.011,0.000,-0.100,0.032,-84.598,0.020,-0.010,0.109,0.000,0.002,0.000,0.001,-0.002,0.000,-0.107,-0.004,0.492,0.000,1,1,1,1,-0.004,-0.010,0.062,-0.221,0.002,0.002,-0.002,-0.002,0.221,0.002,0.000,0
20260703_211105,case01_boxes_2layer,6,62.2,1.000,6.362,648.047,-1.424,738.854,-9.089,0.000,0.853,32.866,-0.760,0.000,0.084,0.764,0.012,0.000,-0.099,0.032,-84.587,0.016,-0.009,0.110,0.000,0.002,0.000,0.001,-0.002,0.000,-0.121,-0.003,0.481,0.000,1,1,1,1,-0.004,-0.010,0.061,-0.221,0.002,0.002,-0.001,-0.001,0.221,0.002,0.000,0
20260703_211105,case01_boxes_2layer,6,62.2,1.000,6.473,647.026,-1.424,738.950,-9.193,0.000,0.864,33.242,-1.038,-0.001,0.109,1.043,0.011,0.000,-0.098,0.031,-84.576,0.009,-0.010,0.103,0.000,0.001,0.000,0.001,-0.010,0.006,-0.124,-0.004,0.476,0.000,1,1,1,1,0.001,0.009,0.074,0.320,0.003,0.003,-0.002,-0.002,0.320,0.003,0.000,0
20260703_211105,case01_boxes_2layer,6,62.2,1.000,6.577,646.069,-1.424,739.040,-9.251,0.000,0.871,33.453,-0.582,0.000,0.066,0.586,0.011,0.000,-0.097,0.030,-84.568,0.003,-0.008,0.087,0.000,0.001,0.000,0.001,-0.001,0.000,-0.125,-0.004,0.468,0.000,1,1,1,1,0.001,0.008,0.073,0.317,0.003,0.003,-0.002,-0.002,0.317,0.003,0.000,0
20260703_211105,case01_boxes_2layer,6,62.2,1.000,6.682,645.100,-1.424,739.131,-9.277,0.000,0.874,33.543,-0.250,0.000,0.034,0.252,0.010,0.000,-0.098,0.029,-84.560,-0.002,-0.008,0.082,0.000,0.002,0.000,0.000,0.008,-0.006,-0.133,-0.004,0.453,0.000,1,1,1,1,-0.004,-0.009,0.058,-0.220,0.002,0.002,-0.001,-0.001,0.220,0.002,0.000,0
20260703_211105,case01_boxes_2layer,6,62.2,1.000,6.790,644.098,-1.425,739.226,-9.331,0.000,0.880,33.739,-0.541,0.000,0.062,0.544,0.010,0.000,-0.098,0.028,-84.551,-0.007,-0.009,0.081,0.000,0.002,0.000,0.001,-0.001,0.000,-0.130,-0.004,0.446,0.000,1,1,1,1,-0.004,-0.009,0.057,-0.220,0.002,0.002,-0.001,-0.001,0.220,0.002,0.000,0
20260703_211105,case01_boxes_2layer,6,62.2,1.000,6.893,643.124,-1.425,739.318,-9.424,0.000,0.890,34.078,-0.935,-0.001,0.100,0.941,0.011,0.000,-0.099,0.027,-84.544,-0.010,-0.007,0.071,0.000,0.001,0.000,0.001,-0.009,0.006,-0.132,-0.004,0.443,0.000,1,1,1,1,0.001,0.008,0.069,0.308,0.003,0.003,-0.002,-0.002,0.308,0.003,0.000,0
20260703_211105,case01_boxes_2layer,6,62.2,1.000,7.001,642.107,-1.425,739.414,-9.443,0.000,0.893,34.146,-0.187,0.000,0.028,0.189,0.010,0.000,-0.101,0.027,-84.537,-0.014,-0.007,0.070,0.000,0.002,0.000,0.000,0.008,-0.006,-0.136,-0.004,0.430,0.000,1,1,1,1,-0.004,-0.008,0.055,-0.219,0.002,0.002,-0.001,-0.001,0.219,0.002,0.000,0
20260703_211105,case01_boxes_2layer,6,62.2,1.000,7.109,641.080,-1.425,739.511,-9.491,0.000,0.899,34.320,-0.482,0.000,0.055,0.485,0.009,0.000,-0.102,0.026,-84.530,-0.016,-0.009,0.069,0.000,0.001,0.000,0.000,-0.001,0.000,-0.139,-0.005,0.423,0.000,1,1,1,1,-0.004,-0.008,0.054,-0.218,0.002,0.002,-0.001,-0.001,0.218,0.002,0.000,0
20260703_211105,case01_boxes_2layer,6,62.2,1.000,7.217,640.053,-1.425,739.608,-9.578,0.000,0.908,34.634,-0.867,-0.001,0.092,0.872,0.009,0.000,-0.104,0.025,-84.524,-0.018,-0.006,0.061,0.000,0.001,0.000,0.001,-0.009,0.006,-0.141,-0.004,0.420,0.000,1,1,1,1,0.001,0.007,0.066,0.299,0.003,0.003,-0.002,-0.002,0.299,0.003,0.000,0
20260703_211105,case01_boxes_2layer,6,62.2,1.000,7.317,639.093,-1.425,739.699,-9.622,0.000,0.913,34.795,-0.444,0.000,0.051,0.447,0.008,0.000,-0.106,0.024,-84.519,-0.017,-0.007,0.055,0.000,0.001,0.000,0.000,-0.001,0.000,-0.140,-0.005,0.414,0.000,1,1,1,1,0.001,0.007,0.065,0.297,0.002,0.002,-0.002,-0.002,0.297,0.002,0.000,0
20260703_211105,case01_boxes_2layer,6,62.2,1.000,7.418,638.125,-1.425,739.791,-9.665,0.000,0.918,34.950,-0.428,0.000,0.049,0.430,0.008,0.000,-0.107,0.024,-84.514,-0.017,-0.006,0.052,0.000,0.000,0.000,0.000,0.000,0.000,-0.139,-0.005,0.407,0.000,1,1,1,1,0.001,0.007,0.064,0.294,0.002,0.002,-0.002,-0.002,0.294,0.002,0.000,0
20260703_211105,case01_boxes_2layer,6,62.2,1.000,7.526,637.081,-1.425,739.891,-9.675,0.000,0.920,34.987,-0.101,0.001,0.018,0.102,0.008,0.001,-0.109,0.023,-84.508,-0.018,-0.007,0.054,0.000,0.001,0.000,-0.001,0.008,-0.005,-0.144,-0.005,0.396,0.000,1,1,1,1,-0.003,-0.007,0.051,-0.216,0.002,0.002,-0.001,-0.001,0.216,0.002,0.000,0
20260703_211105,case01_boxes_2layer,6,62.2,1.000,7.634,636.031,-1.425,739.990,-9.754,0.000,0.928,35.272,-0.787,0.000,0.084,0.792,0.008,0.000,-0.111,0.022,-84.503,-0.016,-0.006,0.049,0.000,0.000,0.000,0.000,-0.009,0.005,-0.148,-0.004,0.395,0.000,1,1,1,1,0.001,0.006,0.062,0.289,0.002,0.002,-0.002,-0.002,0.289,0.002,0.000,0
20260703_211105,case01_boxes_2layer,6,62.2,1.000,7.741,634.982,-1.425,740.090,-9.761,0.000,0.929,35.297,-0.070,0.001,0.015,0.071,0.008,0.001,-0.112,0.022,-84.499,-0.015,-0.005,0.045,0.000,0.001,0.000,-0.001,0.008,-0.005,-0.153,-0.004,0.384,0.000,1,1,1,1,-0.003,-0.007,0.050,-0.214,0.002,0.002,-0.001,-0.001,0.214,0.002,0.000,0
20260703_211105,case01_boxes_2layer,6,62.2,1.000,7.850,633.920,-1.425,740.191,-9.797,0.000,0.934,35.430,-0.367,0.000,0.042,0.370,0.007,0.001,-0.114,0.021,-84.494,-0.012,-0.007,0.044,0.000,0.001,0.000,0.000,-0.001,0.000,-0.152,-0.004,0.378,0.000,1,1,1,1,-0.003,-0.007,0.049,-0.213,0.002,0.002,-0.001,-0.001,0.213,0.002,0.000,0
20260703_211105,case01_boxes_2layer,6,62.2,1.000,7.962,632.819,-1.425,740.296,-9.840,0.000,0.938,35.584,-0.423,0.000,0.048,0.426,0.007,0.001,-0.114,0.021,-84.491,-0.009,-0.005,0.038,0.000,0.001,0.000,0.000,-0.001,0.000,-0.141,-0.005,0.372,0.000,1,1,1,1,-0.003,-0.007,0.049,-0.212,0.001,0.001,-0.001,-0.001,0.212,0.001,0.000,0
20260703_211105,case01_boxes_2layer,6,62.2,1.000,8.086,631.592,-1.425,740.413,-9.880,0.000,0.943,35.730,-0.405,0.000,0.046,0.408,0.007,0.001,-0.115,0.020,-84.487,-0.007,-0.007,0.041,0.000,0.001,0.000,0.000,-0.001,0.000,-0.147,-0.005,0.366,0.000,1,1,1,1,-0.003,-0.006,0.048,-0.211,0.001,0.001,-0.001,-0.001,0.211,0.001,0.000,0
20260703_211105,case01_boxes_2layer,6,62.2,1.000,8.194,630.524,-1.425,740.515,-9.950,0.000,0.950,35.983,-0.697,0.000,0.073,0.701,0.006,0.000,-0.116,0.020,-84.483,-0.003,-0.005,0.032,0.000,0.000,0.000,0.000,-0.009,0.005,-0.149,-0.005,0.366,0.000,1,1,1,1,0.001,0.006,0.058,0.277,0.002,0.002,-0.001,-0.001,0.277,0.002,0.000,0
20260703_211105,case01_boxes_2layer,6,62.2,1.000,8.297,629.492,-1.425,740.614,-9.981,0.000,0.954,36.095,-0.310,0.000,0.035,0.312,0.005,0.001,-0.116,0.019,-84.481,0.000,-0.004,0.027,0.000,0.000,0.000,0.000,0.000,0.000,-0.152,-0.005,0.362,0.000,1,1,1,1,0.001,0.006,0.057,0.275,0.002,0.002,-0.001,-0.001,0.275,0.002,0.000,0
20260703_211105,case01_boxes_2layer,6,62.2,1.000,8.402,628.452,-1.425,740.713,-9.980,0.000,0.954,36.092,0.009,0.001,0.003,-0.008,0.004,0.001,-0.115,0.019,-84.478,0.002,-0.004,0.025,0.000,0.001,0.000,-0.001,0.008,-0.005,-0.158,-0.005,0.352,0.000,1,1,1,1,-0.003,-0.006,0.046,-0.209,0.002,0.002,-0.001,-0.001,0.209,0.002,0.000,0
20260703_211105,case01_boxes_2layer,6,62.2,1.000,8.506,627.411,-1.425,740.813,-10.009,0.000,0.957,36.196,-0.289,0.000,0.032,0.290,0.004,0.000,-0.115,0.018,-84.476,0.005,-0.005,0.023,0.000,0.001,0.000,0.000,-0.001,0.000,-0.158,-0.005,0.348,0.000,1,1,1,1,-0.003,-0.006,0.046,-0.208,0.001,0.001,-0.001,-0.001,0.208,0.001,0.000,0
20260703_211105,case01_boxes_2layer,6,62.2,1.000,8.614,626.327,-1.425,740.917,-10.073,0.000,0.964,36.427,-0.639,0.000,0.064,0.642,0.002,0.000,-0.114,0.018,-84.474,0.007,-0.005,0.019,0.000,0.000,0.000,0.000,-0.009,0.005,-0.163,-0.005,0.348,0.000,1,1,1,1,0.001,0.005,0.055,0.269,0.002,0.002,-0.001,-0.001,0.269,0.002,0.000,0
20260703_211105,case01_boxes_2layer,6,62.2,1.000,8.718,625.281,-1.425,741.017,-10.099,0.000,0.967,36.524,-0.266,0.000,0.028,0.267,0.002,0.000,-0.113,0.017,-84.473,0.008,-0.003,0.013,0.000,0.000,0.000,0.000,-0.001,0.000,-0.168,-0.006,0.344,0.000,1,1,1,1,0.001,0.005,0.055,0.267,0.002,0.002,-0.001,-0.001,0.267,0.002,0.000,0
20260703_211105,case01_boxes_2layer,6,62.2,1.000,8.818,624.270,-1.425,741.113,-10.125,0.000,0.969,36.616,-0.256,0.000,0.025,0.257,0.001,0.000,-0.112,0.017,-84.472,0.009,-0.004,0.010,0.000,0.000,0.000,0.000,-0.001,0.000,-0.169,-0.006,0.340,0.000,1,1,1,1,0.001,0.005,0.054,0.265,0.002,0.002,-0.001,-0.001,0.265,0.002,0.000,0
20260703_211105,case01_boxes_2layer,6,62.2,1.000,8.922,623.217,-1.425,741.214,-10.119,0.000,0.969,36.596,0.056,0.001,-0.004,-0.057,0.001,0.001,-0.111,0.017,-84.471,0.011,-0.004,0.007,0.000,0.000,0.000,-0.001,0.007,-0.005,-0.173,-0.006,0.332,0.000,1,1,1,1,-0.003,-0.006,0.044,-0.204,0.002,0.002,-0.001,-0.001,0.204,0.002,0.000,0
20260703_211105,case01_boxes_2layer,6,62.2,1.000,9.034,622.080,-1.425,741.323,-10.178,0.000,0.974,36.809,-0.588,0.000,0.056,0.591,-0.001,0.000,-0.110,0.016,-84.471,0.012,-0.005,0.005,0.000,0.000,0.000,0.000,-0.009,0.005,-0.175,-0.006,0.333,0.000,1,1,1,1,0.001,0.005,0.053,0.261,0.002,0.002,-0.001,-0.001,0.261,0.002,0.000,0
20260703_211105,case01_boxes_2layer,6,62.2,1.000,9.134,621.061,-1.425,741.421,-10.201,0.000,0.976,36.891,-0.228,0.000,0.022,0.229,0.000,0.000,-0.109,0.016,-84.471,0.011,-0.003,0.000,0.000,0.000,0.000,0.000,0.000,0.000,-0.178,-0.006,0.329,0.000,1,1,1,1,0.001,0.005,0.052,0.259,0.002,0.002,-0.001,-0.001,0.259,0.002,0.000,0
20260703_211105,case01_boxes_2layer,6,62.2,1.000,9.242,619.959,-1.425,741.526,-10.193,0.000,0.975,36.862,0.081,0.000,-0.010,-0.081,-0.002,0.000,-0.108,0.016,-84.471,0.012,-0.003,-0.005,0.000,0.000,0.000,0.000,0.007,-0.005,-0.186,-0.006,0.321,0.000,1,1,1,1,-0.003,-0.005,0.042,-0.201,0.002,0.002,-0.001,-0.001,0.201,0.002,0.000,0
20260703_211105,case01_boxes_2layer,6,62.2,1.000,9.346,618.896,-1.425,741.628,-10.214,0.000,0.977,36.939,-0.213,0.000,0.019,0.213,-0.002,0.000,-0.107,0.015,-84.472,0.012,-0.004,-0.006,0.000,0.000,0.000,0.000,0.000,0.000,-0.185,-0.006,0.318,0.000,1,1,1,1,-0.003,-0.005,0.042,-0.200,0.001,0.001,-0.001,-0.001,0.200,0.001,0.000,0
20260703_211105,case01_boxes_2layer,6,62.2,1.000,9.450,617.834,-1.425,741.729,-10.235,0.000,0.979,37.013,-0.205,0.000,0.016,0.206,-0.004,0.000,-0.106,0.015,-84.473,0.010,-0.004,-0.010,0.000,0.000,0.000,0.000,-0.001,0.000,-0.188,-0.006,0.315,0.000,1,1,1,1,-0.003,-0.005,0.042,-0.199,0.001,0.001,-0.001,-0.001,0.199,0.001,0.000,0
20260703_211105,case01_boxes_2layer,6,62.2,1.000,9.561,616.687,-1.425,741.839,-10.258,0.000,0.981,37.098,-0.237,0.000,0.018,0.237,-0.005,0.000,-0.105,0.015,-84.474,0.011,-0.002,-0.018,0.000,0.000,0.000,0.000,-0.001,0.000,-0.196,-0.007,0.312,0.000,1,1,1,1,-0.002,-0.005,0.041,-0.198,0.002,0.002,-0.001,-0.001,0.198,0.002,0.000,0
20260703_211105,case01_boxes_2layer,6,62.2,1.000,9.666,615.617,-1.425,741.941,-10.277,0.000,0.982,37.166,-0.189,0.000,0.014,0.190,-0.004,0.000,-0.104,0.014,-84.476,0.009,-0.003,-0.018,0.000,0.000,0.000,0.000,-0.001,0.000,-0.196,-0.007,0.309,0.000,1,1,1,1,-0.002,-0.005,0.041,-0.198,0.001,0.001,-0.001,-0.001,0.198,0.001,0.000,0
20260703_211105,case01_boxes_2layer,6,62.2,1.000,9.766,614.586,-1.425,742.040,-10.295,0.000,0.983,37.232,-0.182,0.000,0.013,0.183,-0.004,0.000,-0.103,0.014,-84.478,0.007,-0.003,-0.020,0.000,0.000,0.000,0.000,0.000,0.000,-0.195,-0.007,0.306,0.000,1,1,1,1,-0.002,-0.005,0.041,-0.197,0.001,0.001,-0.001,-0.001,0.197,0.001,0.000,0
20260703_211105,case01_boxes_2layer,6,62.2,1.000,9.870,613.512,-1.425,742.143,-10.313,0.000,0.985,37.296,-0.176,0.000,0.012,0.176,-0.005,0.000,-0.102,0.014,-84.481,0.007,-0.003,-0.023,0.000,0.000,0.000,0.000,-0.001,0.000,-0.197,-0.007,0.304,0.000,1,1,1,1,-0.002,-0.005,0.040,-0.196,0.001,0.001,-0.001,-0.001,0.196,0.001,0.000,0
20260703_211105,case01_boxes_2layer,6,62.2,1.000,9.970,612.477,-1.425,742.241,-10.330,0.000,0.986,37.357,-0.169,0.000,0.010,0.170,-0.007,0.000,-0.102,0.014,-84.483,0.005,-0.002,-0.026,0.000,0.000,0.000,0.000,-0.001,0.000,-0.195,-0.007,0.301,0.000,1,1,1,1,-0.002,-0.005,0.040,-0.195,0.001,0.001,-0.001,-0.001,0.195,0.001,0.000,0
20260703_211105,case01_boxes_2layer,6,62.2,1.000,10.070,611.442,-1.425,742.340,-10.346,0.000,0.987,37.416,-0.163,0.000,0.010,0.164,-0.006,0.000,-0.101,0.013,-84.486,0.004,-0.002,-0.029,0.000,0.000,0.000,0.000,0.000,0.000,-0.197,-0.007,0.299,0.000,1,1,1,1,-0.002,-0.005,0.040,-0.194,0.001,0.001,-0.001,-0.001,0.194,0.001,0.000,0
20260703_211105,case01_boxes_2layer,6,62.2,1.000,10.174,610.362,-1.425,742.443,-10.394,0.000,0.990,37.589,-0.481,-0.001,0.038,0.483,-0.008,0.000,-0.101,0.013,-84.489,0.003,-0.002,-0.033,0.000,-0.001,0.000,0.001,-0.008,0.005,-0.203,-0.007,0.301,0.000,1,1,1,1,0.001,0.005,0.048,0.244,0.002,0.002,-0.001,-0.001,0.244,0.002,0.000,0
20260703_211105,case01_boxes_2layer,6,62.2,1.000,10.278,609.281,-1.425,742.546,-10.409,0.000,0.991,37.643,-0.150,0.000,0.006,0.150,-0.008,0.000,-0.101,0.013,-84.493,0.002,-0.002,-0.036,0.000,-0.001,0.000,0.000,-0.001,0.000,-0.223,-0.007,0.299,0.000,1,1,1,1,0.001,0.005,0.048,0.243,0.002,0.002,-0.001,-0.001,0.243,0.002,0.000,0
20260703_211105,case01_boxes_2layer,6,62.2,1.000,10.385,608.162,-1.425,742.652,-10.395,0.000,0.989,37.590,0.146,0.000,-0.022,-0.148,-0.008,0.000,-0.101,0.013,-84.497,0.000,-0.003,-0.040,0.000,0.000,0.000,0.000,0.007,-0.005,-0.203,-0.007,0.292,0.000,1,1,1,1,-0.002,-0.005,0.039,-0.192,0.001,0.001,-0.001,-0.001,0.192,0.001,0.000,0
20260703_211105,case01_boxes_2layer,6,62.2,1.000,10.494,607.035,-1.425,742.760,-10.441,0.000,0.992,37.755,-0.458,0.000,0.035,0.459,-0.009,0.000,-0.101,0.012,-84.501,0.000,-0.002,-0.042,0.000,-0.001,0.000,0.001,-0.008,0.005,-0.209,-0.007,0.294,0.000,1,1,1,1,0.001,0.004,0.047,0.240,0.002,0.002,-0.001,-0.001,0.240,0.002,0.000,0
20260703_211105,case01_boxes_2layer,6,62.2,1.000,10.602,605.908,-1.425,742.867,-10.425,0.000,0.990,37.698,0.156,0.000,-0.025,-0.158,-0.010,0.000,-0.101,0.012,-84.506,-0.001,-0.002,-0.046,0.000,0.000,0.000,0.000,0.007,-0.005,-0.216,-0.007,0.288,0.000,1,1,1,1,-0.002,-0.005,0.038,-0.190,0.001,0.001,-0.001,-0.001,0.190,0.001,0.000,0
20260703_211105,case01_boxes_2layer,6,62.2,1.000,10.702,604.863,-1.425,742.966,-10.438,0.000,0.990,37.745,-0.129,0.000,0.003,0.129,-0.010,0.000,-0.101,0.012,-84.511,-0.001,-0.002,-0.046,0.000,0.000,0.000,0.000,-0.001,0.000,-0.216,-0.007,0.286,0.000,1,1,1,1,-0.002,-0.005,0.038,-0.190,0.001,0.001,-0.001,-0.001,0.190,0.001,0.000,0
20260703_211105,case01_boxes_2layer,6,62.2,1.000,10.818,603.648,-1.425,743.081,-10.482,0.000,0.993,37.903,-0.437,0.000,0.030,0.438,-0.011,0.000,-0.101,0.012,-84.516,-0.002,-0.002,-0.057,0.000,-0.001,0.000,0.000,-0.008,0.005,-0.219,-0.007,0.288,0.000,1,1,1,1,0.001,0.004,0.046,0.236,0.002,0.002,-0.001,-0.001,0.236,0.002,0.000,0
20260703_211105,case01_boxes_2layer,6,62.2,1.000,10.922,602.559,-1.425,743.184,-10.465,0.000,0.990,37.841,0.168,0.000,-0.028,-0.170,-0.011,0.000,-0.101,0.012,-84.522,-0.002,-0.002,-0.053,0.000,-0.001,0.000,0.000,0.007,-0.005,-0.222,-0.007,0.282,0.000,1,1,1,1,-0.002,-0.005,0.038,-0.188,0.001,0.001,-0.001,-0.001,0.188,0.001,0.000,0
20260703_211105,case01_boxes_2layer,6,62.2,1.000,11.030,601.426,-1.425,743.291,-10.476,0.000,0.990,37.883,-0.115,0.000,0.001,0.115,-0.010,0.000,-0.102,0.011,-84.527,-0.002,-0.003,-0.057,0.000,-0.001,0.000,0.000,0.000,0.000,-0.221,-0.007,0.280,0.000,1,1,1,1,-0.002,-0.005,0.037,-0.188,0.001,0.001,-0.001,-0.001,0.188,0.001,0.000,0
20260703_211105,case01_boxes_2layer,6,62.2,1.000,11.134,600.339,-1.425,743.394,-10.518,0.000,0.993,38.034,-0.418,0.000,0.028,0.419,-0.012,0.000,-0.102,0.011,-84.533,-0.002,-0.001,-0.059,0.000,-0.001,0.000,0.000,-0.008,0.005,-0.224,-0.008,0.283,0.000,1,1,1,1,0.001,0.004,0.045,0.233,0.002,0.002,-0.001,-0.001,0.233,0.002,0.000,0
20260703_211105,case01_boxes_2layer,6,62.2,1.000,11.234,599.288,-1.425,743.493,-10.529,0.000,0.993,38.071,-0.106,0.000,-0.002,0.105,-0.012,0.000,-0.102,0.011,-84.539,-0.002,-0.002,-0.058,0.000,-0.001,0.000,0.000,0.000,0.000,-0.247,-0.008,0.281,0.000,1,1,1,1,0.001,0.004,0.045,0.232,0.002,0.002,-0.001,-0.001,0.232,0.002,0.000,0
20260703_211105,case01_boxes_2layer,6,62.2,1.000,11.334,598.232,-1.425,743.593,-10.539,0.000,0.993,38.108,-0.102,0.000,-0.002,0.101,-0.011,0.000,-0.102,0.011,-84.545,-0.002,-0.001,-0.061,0.000,-0.001,0.000,0.000,0.000,0.000,-0.246,-0.008,0.280,0.000,1,1,1,1,0.001,0.004,0.045,0.231,0.002,0.002,-0.001,-0.001,0.231,0.002,0.000,0
20260703_211105,case01_boxes_2layer,6,62.2,1.000,11.442,597.098,-1.425,743.700,-10.520,0.000,0.990,38.040,0.185,0.000,-0.032,-0.187,-0.014,0.000,-0.102,0.011,-84.552,-0.001,-0.001,-0.069,0.000,-0.001,0.000,0.000,0.007,-0.005,-0.251,-0.008,0.274,0.000,1,1,1,1,-0.002,-0.004,0.037,-0.185,0.002,0.002,-0.001,-0.001,0.185,0.002,0.000,0
20260703_211105,case01_boxes_2layer,6,62.2,1.000,11.546,595.999,-1.425,743.803,-10.530,0.000,0.989,38.074,-0.095,0.000,-0.004,0.095,-0.013,0.000,-0.102,0.011,-84.559,-0.001,-0.002,-0.067,0.000,-0.001,0.000,0.000,0.000,0.000,-0.251,-0.008,0.272,0.000,1,1,1,1,-0.002,-0.004,0.037,-0.185,0.002,0.002,-0.001,-0.001,0.185,0.002,0.000,0
20260703_211105,case01_boxes_2layer,6,62.2,1.000,11.654,594.859,-1.425,743.910,-10.569,0.000,0.991,38.216,-0.392,0.000,0.021,0.392,-0.016,0.000,-0.102,0.011,-84.566,0.000,-0.002,-0.074,0.000,-0.002,0.000,0.000,-0.008,0.005,-0.255,-0.009,0.275,0.000,1,1,1,1,0.001,0.004,0.044,0.228,0.002,0.002,-0.001,-0.001,0.228,0.002,0.000,0
20260703_211105,case01_boxes_2layer,6,62.2,1.000,11.757,593.766,-1.425,744.012,-10.578,0.000,0.991,38.247,-0.088,0.000,-0.004,0.087,-0.013,0.000,-0.102,0.010,-84.573,0.000,-0.001,-0.074,0.000,-0.002,0.000,0.000,0.000,0.000,-0.250,-0.008,0.274,0.000,1,1,1,1,0.001,0.004,0.044,0.228,0.002,0.002,-0.001,-0.001,0.228,0.002,0.000,0
20260703_211105,case01_boxes_2layer,6,62.2,1.000,11.858,592.707,-1.425,744.112,-10.586,0.000,0.990,38.277,-0.084,0.000,-0.005,0.084,-0.013,0.000,-0.102,0.010,-84.581,0.001,-0.001,-0.072,0.000,-0.002,0.000,0.000,0.000,0.000,-0.247,-0.008,0.273,0.000,1,1,1,1,0.001,0.004,0.044,0.227,0.002,0.002,-0.001,-0.001,0.227,0.002,0.000,0
20260703_211105,case01_boxes_2layer,6,62.2,1.000,11.958,591.645,-1.425,744.211,-10.594,0.000,0.990,38.306,-0.081,0.000,-0.006,0.080,-0.014,0.000,-0.102,0.010,-84.588,0.001,-0.001,-0.074,0.000,-0.002,0.000,0.000,0.000,0.000,-0.245,-0.008,0.272,0.000,1,1,1,1,0.001,0.004,0.044,0.226,0.002,0.002,-0.001,-0.001,0.226,0.002,0.000,0
20260703_211105,case01_boxes_2layer,6,62.2,1.000,12.066,590.507,-1.425,744.317,-10.574,0.000,0.986,38.233,0.201,0.000,-0.035,-0.203,-0.016,0.000,-0.102,0.010,-84.596,0.002,-0.002,-0.080,0.000,-0.001,0.000,0.000,0.007,-0.004,-0.250,-0.008,0.266,0.000,1,1,1,1,-0.002,-0.004,0.036,-0.182,0.001,0.001,0.000,0.000,0.182,0.001,0.000,0
20260703_211105,case01_boxes_2layer,6,62.2,1.000,12.170,589.405,-1.425,744.420,-10.582,0.000,0.985,38.260,-0.076,0.000,-0.009,0.075,-0.016,0.000,-0.102,0.010,-84.604,0.002,-0.002,-0.079,0.000,-0.001,0.000,0.000,-0.001,0.000,-0.250,-0.008,0.265,0.000,1,1,1,1,-0.002,-0.004,0.036,-0.181,0.001,0.001,0.000,0.000,0.181,0.001,0.000,0
20260703_211105,case01_boxes_2layer,6,62.2,1.000,12.270,588.345,-1.425,744.518,-10.589,0.000,0.984,38.286,-0.074,0.000,-0.010,0.073,-0.016,0.000,-0.101,0.010,-84.612,0.002,-0.001,-0.080,0.000,-0.001,0.000,0.000,-0.001,0.000,-0.276,-0.008,0.264,0.000,1,1,1,1,-0.002,-0.004,0.035,-0.181,0.002,0.002,0.000,0.000,0.181,0.002,0.000,0
20260703_211105,case01_boxes_2layer,6,62.2,1.000,12.378,587.200,-1.425,744.625,-10.626,0.000,0.986,38.416,-0.362,0.000,0.016,0.362,-0.018,0.000,-0.101,0.010,-84.621,0.003,0.000,-0.091,0.000,-0.002,0.000,0.000,-0.007,0.004,-0.254,-0.009,0.267,0.000,1,1,1,1,0.001,0.004,0.043,0.223,0.002,0.002,-0.001,-0.001,0.223,0.002,0.000,0
20260703_211105,case01_boxes_2layer,6,62.2,1.000,12.490,586.009,-1.425,744.735,-10.605,0.000,0.982,38.340,0.209,0.000,-0.038,-0.212,-0.018,0.000,-0.101,0.010,-84.630,0.003,-0.002,-0.094,0.000,-0.001,0.000,0.000,0.006,-0.004,-0.254,-0.009,0.262,0.000,1,1,1,1,-0.002,-0.004,0.035,-0.179,0.001,0.001,0.000,0.000,0.179,0.001,0.000,0
20260703_211105,case01_boxes_2layer,6,62.2,1.000,12.590,584.946,-1.425,744.834,-10.611,0.000,0.981,38.363,-0.066,0.000,-0.011,0.064,-0.017,0.000,-0.100,0.010,-84.639,0.003,-0.001,-0.087,0.000,-0.001,0.000,0.000,0.000,0.000,-0.278,-0.008,0.261,0.000,1,1,1,1,-0.002,-0.004,0.035,-0.179,0.002,0.002,0.000,0.000,0.179,0.002,0.000,0
20260703_211105,case01_boxes_2layer,6,62.2,1.000,12.698,583.801,-1.425,744.939,-10.646,0.000,0.983,38.490,-0.351,0.000,0.013,0.351,-0.020,0.000,-0.100,0.010,-84.649,0.004,0.000,-0.098,0.000,-0.002,0.000,0.000,-0.007,0.004,-0.284,-0.009,0.264,0.000,1,1,1,1,0.001,0.004,0.042,0.221,0.002,0.002,-0.001,-0.001,0.221,0.002,0.000,0
20260703_211105,case01_boxes_2layer,6,62.2,1.000,12.810,582.606,-1.425,745.049,-10.625,0.000,0.978,38.411,0.215,0.000,-0.044,-0.218,-0.023,0.000,-0.100,0.009,-84.659,0.004,-0.002,-0.103,0.000,-0.001,0.000,0.000,0.006,-0.004,-0.323,-0.009,0.259,0.000,1,1,1,1,-0.002,-0.004,0.035,-0.178,0.002,0.002,0.000,0.000,0.178,0.002,0.000,0
20260703_211105,case01_boxes_2layer,6,62.2,1.000,12.918,581.457,-1.425,745.155,-10.659,0.000,0.979,38.535,-0.345,0.000,0.005,0.344,-0.027,0.000,-0.099,0.009,-84.670,0.005,0.000,-0.110,0.000,-0.002,0.000,0.000,-0.008,0.004,-0.324,-0.010,0.262,0.000,1,1,1,1,0.001,0.004,0.042,0.219,0.003,0.003,-0.001,-0.001,0.219,0.003,0.000,0
20260703_211105,case01_boxes_2layer,6,62.2,1.000,13.021,580.354,-1.425,745.256,-10.638,0.000,0.974,38.456,0.218,0.000,-0.046,-0.221,-0.025,0.000,-0.099,0.009,-84.682,0.005,-0.001,-0.113,0.000,-0.002,0.000,0.000,0.006,-0.004,-0.322,-0.010,0.257,0.000,1,1,1,1,-0.002,-0.004,0.035,-0.177,0.002,0.002,0.000,0.000,0.177,0.002,0.000,0
20260703_211105,case01_boxes_2layer,6,62.2,1.000,13.126,579.245,-1.425,745.358,-10.643,0.000,0.973,38.475,-0.054,0.000,-0.016,0.053,-0.020,0.000,-0.098,0.009,-84.693,0.005,-0.001,-0.117,0.000,-0.002,0.000,0.000,0.000,0.000,-0.311,-0.010,0.256,0.000,1,1,1,1,-0.002,-0.004,0.035,-0.176,0.002,0.002,0.000,0.000,0.176,0.002,0.000,0
20260703_211105,case01_boxes_2layer,6,62.2,1.000,13.238,578.051,-1.425,745.467,-10.677,0.000,0.973,38.595,-0.335,0.000,0.009,0.334,-0.022,0.000,-0.097,0.009,-84.706,0.006,0.000,-0.128,0.000,-0.002,0.000,0.000,-0.007,0.004,-0.307,-0.010,0.260,0.000,1,1,1,1,0.001,0.004,0.042,0.217,0.002,0.002,-0.001,-0.001,0.217,0.002,0.000,0
20260703_211105,case01_boxes_2layer,6,62.2,1.000,13.346,576.895,-1.425,745.572,-10.654,0.000,0.969,38.514,0.222,0.000,-0.042,-0.225,-0.021,0.000,-0.097,0.009,-84.718,0.005,-0.001,-0.123,0.000,-0.002,0.000,0.000,0.007,-0.004,-0.302,-0.010,0.255,0.000,1,1,1,1,-0.002,-0.004,0.034,-0.175,0.002,0.002,0.000,0.000,0.175,0.002,0.000,0
20260703_211105,case01_boxes_2layer,6,62.2,1.000,13.450,575.789,-1.425,745.672,-10.659,0.000,0.968,38.531,-0.048,0.000,-0.015,0.047,-0.019,0.000,-0.097,0.009,-84.730,0.004,-0.001,-0.115,0.000,-0.002,0.000,0.000,0.000,0.000,-0.295,-0.010,0.254,0.000,1,1,1,1,-0.002,-0.004,0.034,-0.175,0.002,0.002,0.000,0.000,0.175,0.002,0.000,0
20260703_211105,case01_boxes_2layer,6,62.2,1.000,13.554,574.676,-1.425,745.773,-10.692,0.000,0.969,38.648,-0.327,0.000,0.007,0.326,-0.023,0.000,-0.096,0.009,-84.742,0.003,0.000,-0.117,0.000,-0.002,0.000,0.000,-0.007,0.004,-0.294,-0.010,0.257,0.000,1,1,1,1,0.001,0.004,0.041,0.215,0.002,0.002,-0.001,-0.001,0.215,0.002,0.000,0
20260703_211105,case01_boxes_2layer,6,62.2,1.000,13.666,573.482,-1.425,745.881,-10.669,0.000,0.964,38.566,0.226,0.000,-0.044,-0.229,-0.023,0.000,-0.096,0.009,-84.754,0.002,-0.001,-0.125,0.000,-0.002,0.000,0.000,0.007,-0.004,-0.293,-0.010,0.253,0.000,1,1,1,1,-0.002,-0.004,0.034,-0.174,0.002,0.002,0.000,0.000,0.174,0.002,0.000,0
20260703_211105,case01_boxes_2layer,6,62.2,1.000,13.770,572.372,-1.425,745.981,-10.674,0.000,0.962,38.581,-0.043,0.000,-0.017,0.041,-0.021,0.000,-0.096,0.009,-84.766,0.002,-0.001,-0.115,0.000,-0.002,0.000,0.000,0.000,0.000,-0.289,-0.010,0.252,0.000,1,1,1,1,-0.002,-0.004,0.034,-0.174,0.002,0.002,0.000,0.000,0.174,0.002,0.000,0
20260703_211105,case01_boxes_2layer,6,62.2,1.000,13.878,571.212,-1.425,746.086,-10.705,0.000,0.963,38.695,-0.319,0.000,0.005,0.318,-0.024,0.000,-0.096,0.009,-84.778,0.001,0.000,-0.123,0.000,-0.002,0.000,0.000,-0.007,0.004,-0.292,-0.010,0.255,0.000,1,1,1,1,0.001,0.004,0.041,0.214,0.002,0.002,-0.001,-0.001,0.214,0.002,0.000,0
20260703_211105,case01_boxes_2layer,6,62.2,1.000,13.986,570.060,-1.425,746.189,-10.682,0.000,0.958,38.611,0.230,0.000,-0.045,-0.233,-0.024,0.000,-0.096,0.009,-84.790,0.000,-0.001,-0.122,0.000,-0.002,0.000,0.000,0.006,-0.004,-0.294,-0.010,0.251,0.000,1,1,1,1,-0.002,-0.004,0.034,-0.173,0.002,0.002,0.000,0.000,0.173,0.002,0.000,0
20260703_211105,case01_boxes_2layer,6,62.2,1.000,14.090,568.946,-1.425,746.289,-10.686,0.000,0.956,38.625,-0.039,0.000,-0.019,0.037,-0.023,0.000,-0.096,0.008,-84.802,0.000,-0.001,-0.119,0.000,-0.002,0.000,0.000,0.000,0.000,-0.290,-0.010,0.250,0.000,1,1,1,1,-0.002,-0.004,0.034,-0.173,0.001,0.001,0.000,0.000,0.173,0.001,0.000,0
20260703_211105,case01_boxes_2layer,6,62.2,1.000,14.202,567.749,-1.425,746.396,-10.691,0.000,0.954,38.640,-0.045,0.000,-0.024,0.042,-0.028,0.000,-0.096,0.008,-84.815,0.000,0.000,-0.132,0.000,-0.002,0.000,0.000,0.000,0.000,-0.302,-0.010,0.250,0.000,1,1,1,1,-0.002,-0.004,0.034,-0.173,0.002,0.002,0.000,0.000,0.173,0.002,0.000,0
20260703_211105,case01_boxes_2layer,6,62.2,1.000,14.314,566.550,-1.425,746.503,-10.722,0.000,0.954,38.751,-0.311,0.000,0.002,0.310,-0.026,0.000,-0.096,0.008,-84.828,-0.001,-0.001,-0.133,0.000,-0.002,0.000,0.000,-0.007,0.004,-0.304,-0.010,0.253,0.000,1,1,1,1,0.001,0.004,0.041,0.212,0.002,0.002,-0.001,-0.001,0.212,0.002,0.000,0
20260703_211105,case01_boxes_2layer,6,62.2,1.000,14.418,565.435,-1.425,746.602,-10.725,0.000,0.952,38.763,-0.034,0.000,-0.022,0.032,-0.025,0.000,-0.096,0.008,-84.841,0.000,0.000,-0.128,0.000,-0.002,0.000,0.000,-0.001,0.000,-0.301,-0.010,0.253,0.000,1,1,1,1,0.001,0.004,0.041,0.212,0.002,0.002,-0.001,-0.001,0.212,0.002,0.000,0
20260703_211105,case01_boxes_2layer,6,62.2,1.000,14.534,564.191,-1.425,746.712,-10.729,0.000,0.949,38.776,-0.039,0.000,-0.026,0.037,-0.030,0.000,-0.096,0.008,-84.856,0.000,-0.001,-0.145,0.000,-0.003,0.000,0.000,-0.001,0.000,-0.309,-0.010,0.252,0.000,1,1,1,1,0.001,0.004,0.040,0.211,0.002,0.002,-0.001,-0.001,0.211,0.002,0.000,0
20260703_211105,case01_boxes_2layer,6,62.2,1.000,14.641,563.039,-1.425,746.814,-10.706,0.000,0.945,38.690,0.235,0.000,-0.049,-0.239,-0.027,0.000,-0.096,0.008,-84.869,0.000,0.000,-0.139,0.000,-0.002,0.000,0.000,0.006,-0.004,-0.312,-0.010,0.248,0.000,1,1,1,1,-0.002,-0.004,0.033,-0.171,0.002,0.002,0.000,0.000,0.171,0.002,0.000,0
20260703_211105,case01_boxes_2layer,6,62.2,1.000,14.750,561.877,-1.425,746.917,-10.709,0.000,0.942,38.701,-0.031,0.000,-0.025,0.029,-0.027,0.000,-0.096,0.008,-84.883,0.000,-0.002,-0.140,0.000,-0.002,0.000,0.000,-0.001,0.000,-0.346,-0.011,0.247,0.000,1,1,1,1,-0.002,-0.004,0.033,-0.171,0.002,0.002,0.000,0.000,0.171,0.002,0.000,0
20260703_211105,case01_boxes_2layer,6,62.2,1.000,14.858,560.721,-1.425,747.018,-10.739,0.000,0.942,38.809,-0.302,0.000,-0.003,0.300,-0.030,0.000,-0.096,0.008,-84.898,0.001,0.000,-0.146,0.000,-0.003,0.000,0.000,-0.007,0.004,-0.346,-0.011,0.251,0.000,1,1,1,1,0.001,0.004,0.040,0.210,0.003,0.003,-0.001,-0.001,0.210,0.003,0.000,0
20260703_211105,case01_boxes_2layer,6,62.2,1.000,14.966,559.563,-1.425,747.119,-10.715,0.000,0.937,38.722,0.237,0.000,-0.050,-0.241,-0.029,0.000,-0.096,0.008,-84.913,0.001,-0.001,-0.147,0.000,-0.002,0.000,0.000,0.006,-0.004,-0.348,-0.011,0.246,0.000,1,1,1,1,-0.002,-0.004,0.033,-0.171,0.002,0.002,0.000,0.000,0.171,0.002,0.000,0
20260703_211105,case01_boxes_2layer,6,62.2,1.000,15.066,558.489,-1.425,747.213,-10.718,0.000,0.934,38.731,-0.028,0.000,-0.024,0.025,-0.026,0.000,-0.096,0.008,-84.927,0.001,0.000,-0.139,0.000,-0.002,0.000,0.000,0.000,0.000,-0.345,-0.012,0.246,0.000,1,1,1,1,-0.002,-0.004,0.033,-0.170,0.002,0.002,0.000,0.000,0.170,0.002,0.000,0
20260703_211105,case01_boxes_2layer,6,62.2,1.000,15.174,557.330,-1.425,747.314,-10.748,0.000,0.934,38.837,-0.297,0.000,-0.005,0.296,-0.031,0.000,-0.096,0.008,-84.942,0.002,-0.001,-0.153,0.000,-0.003,0.000,0.000,-0.007,0.004,-0.347,-0.012,0.249,0.000,1,1,1,1,0.001,0.004,0.040,0.209,0.002,0.002,-0.001,-0.001,0.209,0.002,0.000,0
20260703_211105,case01_boxes_2layer,6,62.2,1.000,15.274,556.255,-1.425,747.407,-10.750,0.000,0.931,38.846,-0.025,0.000,-0.026,0.023,-0.028,0.000,-0.095,0.008,-84.956,0.002,0.000,-0.144,0.000,-0.003,0.000,0.000,0.000,0.000,-0.341,-0.011,0.249,0.000,1,1,1,1,0.001,0.004,0.040,0.209,0.002,0.002,-0.001,-0.001,0.209,0.002,0.000,0
20260703_211105,case01_boxes_2layer,6,62.2,1.000,15.386,555.052,-1.425,747.511,-10.726,0.000,0.926,38.758,0.240,0.000,-0.052,-0.244,-0.030,0.000,-0.095,0.008,-84.973,0.002,0.000,-0.163,0.000,-0.002,0.000,0.000,0.006,-0.004,-0.342,-0.012,0.245,0.000,1,1,1,1,-0.002,-0.004,0.033,-0.170,0.002,0.002,0.000,0.000,0.170,0.002,0.000,0
20260703_211105,case01_boxes_2layer,6,62.2,1.000,15.490,553.934,-1.425,747.608,-10.729,0.000,0.923,38.766,-0.024,0.000,-0.027,0.022,-0.029,0.000,-0.095,0.008,-84.988,0.002,-0.001,-0.154,0.000,-0.002,0.000,0.000,0.000,0.000,-0.340,-0.011,0.245,0.000,1,1,1,1,-0.002,-0.004,0.033,-0.169,0.002,0.002,0.000,0.000,0.169,0.002,0.000,0
20260703_211105,case01_boxes_2layer,6,62.2,1.000,15.598,552.777,-1.425,747.707,-10.758,0.000,0.923,38.870,-0.292,0.000,-0.008,0.290,-0.034,0.000,-0.095,0.008,-85.004,0.002,0.001,-0.164,0.000,-0.003,0.000,0.000,-0.007,0.004,-0.343,-0.012,0.248,0.000,1,1,1,1,0.001,0.004,0.040,0.208,0.002,0.002,0.000,0.000,0.208,0.002,0.000,0
20260703_211105,case01_boxes_2layer,6,62.2,1.000,15.702,551.657,-1.425,747.803,-10.734,0.000,0.917,38.782,0.241,0.000,-0.054,-0.245,-0.033,0.000,-0.094,0.008,-85.020,0.003,0.000,-0.160,0.000,-0.002,0.000,0.000,0.006,-0.004,-0.345,-0.012,0.244,0.000,1,1,1,1,-0.002,-0.004,0.033,-0.169,0.002,0.002,0.000,0.000,0.169,0.002,0.000,0
20260703_211105,case01_boxes_2layer,6,62.2,1.000,15.806,550.541,-1.425,747.898,-10.736,0.000,0.914,38.789,-0.022,0.000,-0.029,0.019,-0.031,0.000,-0.094,0.008,-85.037,0.003,-0.001,-0.162,0.000,-0.002,0.000,0.000,0.000,0.000,-0.375,-0.011,0.244,0.000,1,1,1,1,-0.002,-0.004,0.033,-0.169,0.002,0.002,0.000,0.000,0.169,0.002,0.000,0
20260703_211105,case01_boxes_2layer,6,62.2,1.000,15.910,549.422,-1.425,747.993,-10.738,0.000,0.911,38.796,-0.021,0.000,-0.029,0.018,-0.031,0.000,-0.094,0.008,-85.053,0.003,-0.001,-0.164,0.000,-0.002,0.000,0.000,0.000,0.000,-0.369,-0.012,0.243,0.000,1,1,1,1,-0.002,-0.004,0.033,-0.168,0.002,0.002,0.000,0.000,0.168,0.002,0.000,0
20260703_211105,case01_boxes_2layer,6,62.2,1.000,16.010,548.344,-1.425,748.085,-10.767,0.000,0.910,38.898,-0.287,0.000,-0.010,0.285,-0.034,0.000,-0.094,0.008,-85.069,0.003,0.000,-0.161,0.000,-0.003,0.000,0.000,-0.007,0.004,-0.368,-0.012,0.247,0.000,1,1,1,1,0.001,0.004,0.040,0.207,0.002,0.002,0.000,0.000,0.207,0.002,0.000,0
20260703_211105,case01_boxes_2layer,6,62.2,1.000,16.130,547.075,-1.205,748.191,-10.413,-0.075,0.820,37.602,3.540,-0.751,-0.907,-3.621,-0.590,-0.678,-0.871,-1.307,-85.076,-7.771,-13.148,-0.067,0.009,-0.014,-0.055,0.086,-0.113,-0.553,-0.788,-0.027,0.298,0.000,1,1,1,1,0.000,0.514,0.161,0.043,-0.003,0.008,0.001,0.001,0.514,0.008,0.022,0
20260703_211105,case01_boxes_2layer,6,62.2,1.000,16.242,545.928,-1.210,748.283,-10.190,-0.645,0.818,36.874,2.231,-5.701,-0.015,-2.399,0.256,-5.627,-0.826,-1.762,-85.137,0.450,-4.550,-0.606,-0.004,-0.011,-0.019,-0.126,0.033,0.362,-0.573,-0.019,0.325,0.000,0,0,1,1,0.000,0.000,0.049,0.029,0.000,0.000,0.001,0.001,0.049,0.001,0.000,0
20260703_211105,case01_boxes_2layer,6,62.2,1.000,16.342,544.907,-1.286,748.365,-10.211,-0.857,0.816,37.005,-0.213,-2.113,-0.017,0.146,-0.004,-2.119,-0.819,-1.767,-85.193,0.070,-0.047,-0.567,0.002,-0.009,0.021,0.062,0.025,0.399,-0.380,-0.012,0.320,0.000,0,0,1,1,0.000,0.000,0.038,0.066,0.000,0.000,0.001,0.001,0.066,0.001,0.000,0
20260703_211105,case01_boxes_2layer,6,62.2,1.000,16.450,543.806,-1.383,748.453,-10.242,-0.940,0.816,37.142,-0.309,-0.839,-0.001,0.285,-0.014,-0.847,-0.834,-1.499,-85.236,-0.154,2.678,-0.432,0.010,-0.006,0.065,0.079,0.022,0.442,-0.316,-0.009,0.322,0.000,0,0,1,1,0.000,0.000,0.055,0.409,0.000,0.000,0.000,0.000,0.409,0.000,0.000,0
20260703_211105,case01_boxes_2layer,6,62.2,1.000,16.558,542.701,-1.463,748.542,-10.182,-0.372,0.821,36.799,0.596,5.681,0.049,-0.501,0.014,5.690,-0.848,-0.892,-85.266,-0.135,6.065,-0.298,0.004,-0.004,0.123,-0.058,0.022,0.579,-0.252,-0.008,0.319,0.000,0,1,1,1,0.000,-0.013,0.020,-0.307,0.000,-0.003,0.000,0.000,0.307,0.003,0.000,0
20260703_211105,case01_boxes_2layer,6,62.2,1.000,16.666,541.596,-1.483,748.631,-10.256,-0.022,0.836,37.046,-0.744,3.507,0.142,0.765,0.031,3.505,-0.813,-0.197,-85.291,0.342,6.952,-0.249,0.003,-0.004,0.100,-0.015,0.005,-0.234,-0.181,-0.006,0.324,0.000,1,1,1,1,0.004,0.059,0.054,0.303,-0.001,-0.001,0.000,0.000,0.303,0.001,0.000,0
20260703_211105,case01_boxes_2layer,6,62.2,1.000,16.766,540.569,-1.473,748.715,-10.288,0.210,0.842,37.169,-0.318,2.317,0.063,0.310,0.005,2.319,-0.781,0.281,-85.305,0.326,4.780,-0.144,-0.001,-0.003,0.068,-0.034,0.007,-0.317,-0.147,-0.005,0.322,0.000,1,1,1,1,0.006,0.284,0.065,0.219,0.000,0.000,-0.001,-0.001,0.284,0.001,0.000,0
20260703_211105,case01_boxes_2layer,6,62.2,1.000,16.869,539.502,-1.445,748.802,-10.301,0.300,0.846,37.224,-0.128,0.899,0.039,0.122,0.017,0.900,-0.738,0.578,-85.316,0.427,2.974,-0.103,-0.005,-0.002,0.036,-0.048,0.009,-0.324,-0.126,-0.004,0.316,0.000,1,1,1,1,0.003,0.246,0.073,0.085,0.000,0.000,-0.001,-0.001,0.246,0.001,0.000,0
20260703_211105,case01_boxes_2layer,6,62.2,1.000,16.970,538.470,-1.416,748.887,-10.316,0.261,0.850,37.275,-0.148,-0.387,0.043,0.155,0.035,-0.385,-0.681,0.688,-85.322,0.573,1.100,-0.064,-0.011,-0.001,0.008,-0.054,0.008,-0.274,-0.118,-0.004,0.311,0.000,1,1,1,1,0.002,0.161,0.077,0.045,0.000,0.000,-0.001,-0.001,0.161,0.001,0.000,0
20260703_211105,case01_boxes_2layer,6,62.2,1.000,17.078,537.356,-1.395,748.979,-10.330,0.134,0.855,37.316,-0.137,-1.272,0.049,0.155,0.050,-1.270,-0.597,0.656,-85.326,0.833,-0.325,-0.035,-0.016,0.000,-0.013,-0.055,0.009,-0.215,-0.112,-0.004,0.306,0.000,1,1,1,1,0.000,-0.011,0.070,0.033,0.000,0.000,-0.001,-0.001,0.070,0.001,0.000,0
20260703_211105,case01_boxes_2layer,6,62.2,1.000,17.182,536.277,-1.388,749.068,-10.351,-0.006,0.860,37.392,-0.215,-1.398,0.055,0.232,0.050,-1.396,-0.498,0.527,-85.326,0.999,-1.289,-0.007,-0.020,0.000,-0.025,-0.039,0.004,-0.121,-0.122,-0.004,0.303,0.000,1,1,1,1,0.000,0.000,0.059,0.033,0.000,0.000,-0.001,-0.001,0.059,0.001,0.000,0
20260703_211105,case01_boxes_2layer,6,62.2,1.000,17.290,535.161,-1.394,749.161,-10.368,-0.097,0.865,37.457,-0.173,-0.914,0.044,0.181,0.035,-0.912,-0.381,0.344,-85.326,1.163,-1.822,0.008,-0.022,0.000,-0.029,-0.017,0.002,-0.039,-0.147,-0.005,0.301,0.000,1,1,1,1,0.000,0.000,0.050,0.030,0.001,0.001,-0.001,-0.001,0.050,0.001,0.000,0
20260703_211105,case01_boxes_2layer,6,62.2,1.000,17.393,534.085,-1.407,749.250,-10.385,-0.139,0.868,37.521,-0.172,-0.414,0.031,0.175,0.019,-0.414,-0.265,0.163,-85.325,1.159,-1.814,0.009,-0.022,0.000,-0.027,0.002,0.000,0.018,-0.184,-0.006,0.298,0.000,1,1,1,1,-0.001,0.000,0.044,0.028,0.002,0.002,-0.001,-0.001,0.044,0.002,0.000,0
20260703_211105,case01_boxes_2layer,6,62.2,1.000,17.494,533.056,-1.114,749.334,-9.931,-0.032,0.731,35.847,4.549,1.063,-1.369,-4.661,-1.024,0.963,-1.062,1.009,-85.470,-7.969,8.460,-1.452,-0.001,0.001,0.029,0.205,0.007,0.570,-0.376,-0.013,0.351,0.000,0,1,1,1,0.000,0.007,-0.169,-1.033,0.000,0.000,-0.009,0.000,1.033,0.009,0.024,0
20260703_211105,case01_boxes_2layer,6,62.2,1.000,17.598,532.029,-1.070,749.413,-9.853,-0.614,0.747,35.642,0.774,-5.821,0.163,-0.615,0.321,-5.834,-0.959,1.417,-85.490,1.028,4.079,-0.200,-0.013,-0.002,0.027,-0.123,-0.028,-0.026,-0.243,-0.008,0.372,0.000,0,1,0,1,0.000,0.001,0.000,0.183,0.000,-0.003,0.000,0.026,0.183,0.026,0.000,0
20260703_211105,case01_boxes_2layer,6,62.2,1.000,17.706,530.968,-1.177,749.493,-9.786,-1.244,0.750,35.617,0.669,-6.299,0.031,-0.507,0.177,-6.312,-0.852,1.438,-85.495,1.069,0.209,-0.047,-0.020,-0.001,-0.019,-0.065,0.012,-0.460,-0.152,-0.005,0.374,0.000,1,1,0,0,0.001,0.000,0.000,0.000,-0.003,-0.003,0.000,0.000,0.001,0.003,0.000,0
20260703_211105,case01_boxes_2layer,6,62.2,1.000,17.818,529.875,-1.338,749.577,-9.742,-1.593,0.757,35.642,0.440,-3.487,0.070,-0.366,0.149,-3.493,-0.733,1.102,-85.495,1.197,-3.355,0.001,-0.025,0.000,-0.082,-0.050,0.007,-0.631,-0.108,-0.003,0.373,0.000,1,1,0,0,0.001,0.001,0.000,0.000,-0.002,-0.002,0.000,0.000,0.001,0.002,0.000,0
20260703_211105,case01_boxes_2layer,6,62.2,1.000,17.922,528.851,-1.477,749.658,-9.952,-0.949,0.797,36.103,-2.097,6.443,0.397,2.068,0.162,6.462,-0.610,0.479,-85.482,1.230,-6.232,0.127,-0.028,0.006,-0.109,-0.029,0.065,-0.271,-0.101,-0.003,0.347,0.000,1,1,1,1,-0.004,-0.076,0.205,-0.491,0.002,0.002,-0.004,-0.004,0.491,0.004,0.000,0
20260703_211105,case01_boxes_2layer,6,62.2,1.000,18.022,527.854,-1.542,749.738,-9.981,-0.352,0.806,36.070,-0.288,5.972,0.093,0.308,0.016,5.972,-0.517,-0.126,-85.462,0.929,-6.052,0.195,-0.021,0.004,-0.094,0.074,-0.023,0.148,-0.168,-0.006,0.353,0.000,1,1,1,1,-0.002,-0.120,0.331,-0.220,0.002,0.002,-0.001,-0.001,0.331,0.002,0.000,0
20260703_211105,case01_boxes_2layer,6,62.2,1.000,18.130,526.775,-1.507,749.825,-9.991,0.404,0.820,36.119,-0.105,7.560,0.140,0.176,0.083,7.560,-0.365,-0.457,-85.462,1.517,-3.306,0.004,-0.028,0.001,-0.037,-0.070,-0.034,0.575,-0.184,-0.006,0.347,0.000,1,1,1,1,-0.007,-0.006,0.043,-0.276,0.001,0.001,-0.001,-0.001,0.276,0.001,0.000,0
20260703_211105,case01_boxes_2layer,6,62.2,1.000,18.234,525.731,-1.467,749.911,-10.066,0.344,0.829,36.380,-0.743,-0.608,0.085,0.741,0.028,-0.615,-0.221,-0.592,-85.462,1.440,-1.352,0.002,-0.024,0.000,-0.006,0.030,-0.009,0.311,-0.232,-0.008,0.350,0.000,1,1,1,1,-0.005,0.004,0.054,0.341,0.003,0.003,-0.001,-0.001,0.341,0.003,0.000,0
20260703_211105,case01_boxes_2layer,6,62.2,1.000,18.338,524.688,-1.438,749.996,-10.087,0.223,0.830,36.446,-0.217,-1.202,0.014,0.206,-0.002,-1.204,-0.080,-0.568,-85.461,1.412,0.237,0.005,-0.022,0.000,0.017,0.022,0.000,0.226,-0.295,-0.010,0.347,0.000,1,1,1,1,-0.005,0.003,0.053,0.305,0.004,0.004,-0.001,-0.001,0.305,0.004,0.000,0
20260703_211105,case01_boxes_2layer,6,62.2,1.000,18.438,523.678,-1.421,750.079,-10.109,0.113,0.829,36.518,-0.221,-1.107,-0.017,0.211,-0.035,-1.109,0.052,-0.438,-85.462,1.317,1.306,-0.009,-0.020,-0.001,0.031,0.023,-0.005,0.139,-0.386,-0.012,0.343,0.000,1,1,1,1,-0.001,0.003,0.052,0.267,0.005,0.005,-0.001,-0.001,0.267,0.005,0.000,0
20260703_211105,case01_boxes_2layer,6,62.2,1.000,18.550,522.547,-1.414,750.170,-10.109,0.037,0.821,36.512,0.004,-0.755,-0.076,-0.013,-0.078,-0.754,0.187,-0.232,-85.467,1.355,2.051,-0.053,-0.017,-0.001,0.035,0.028,-0.003,0.041,-0.464,-0.016,0.335,0.000,1,1,1,1,-0.002,-0.004,0.044,-0.163,0.005,0.005,-0.001,-0.001,0.163,0.005,0.000,0
20260703_211105,case01_boxes_2layer,6,62.2,1.000,18.650,521.531,-1.412,750.252,-10.139,0.010,0.814,36.619,-0.304,-0.270,-0.074,0.297,-0.099,-0.270,0.292,-0.049,-85.478,1.048,1.831,-0.107,-0.014,-0.002,0.031,0.028,-0.012,-0.037,-0.510,-0.017,0.332,0.000,1,1,1,1,-0.002,-0.003,0.046,-0.111,0.005,0.005,0.000,0.000,0.111,0.005,0.000,0
20260703_211105,case01_boxes_2layer,6,62.2,1.000,18.757,520.437,-1.411,750.339,-10.179,0.007,0.804,36.760,-0.401,-0.030,-0.093,0.393,-0.125,-0.028,0.383,0.107,-85.496,0.906,1.561,-0.181,-0.011,-0.003,0.022,0.033,-0.014,-0.092,-0.544,-0.018,0.329,0.000,1,1,1,1,0.000,0.001,0.051,0.083,0.004,0.004,0.000,0.000,0.083,0.004,0.000,0
20260703_211105,case01_boxes_2layer,6,62.2,1.000,18.862,519.372,-1.410,750.422,-10.203,0.011,0.793,36.843,-0.240,0.036,-0.111,0.231,-0.129,0.038,0.447,0.199,-85.519,0.641,0.923,-0.229,-0.008,-0.004,0.011,0.033,-0.008,-0.111,-0.627,-0.019,0.325,0.000,1,1,1,1,0.000,0.000,0.049,0.026,0.005,0.005,0.000,0.000,0.049,0.005,0.000,0
20260703_211105,case01_boxes_2layer,6,62.2,1.000,18.974,518.229,-1.409,750.510,-10.230,0.008,0.783,36.936,-0.266,-0.028,-0.105,0.258,-0.125,-0.026,0.489,0.232,-85.548,0.424,0.332,-0.287,-0.004,-0.005,0.001,0.033,-0.005,-0.099,-0.634,-0.021,0.321,0.000,1,1,1,1,0.000,0.000,0.048,0.035,0.004,0.004,0.000,0.000,0.048,0.004,0.000,0
20260703_211105,case01_boxes_2layer,6,62.2,1.000,19.086,517.081,-1.409,750.597,-10.255,-0.003,0.773,37.022,-0.247,-0.114,-0.102,0.238,-0.122,-0.112,0.506,0.211,-85.579,0.168,-0.210,-0.316,-0.001,-0.005,-0.006,0.032,-0.003,-0.071,-0.630,-0.021,0.318,0.000,1,1,1,1,0.000,0.000,0.047,0.032,0.004,0.004,0.000,0.000,0.047,0.004,0.000,0
20260703_211105,case01_boxes_2layer,6,62.2,1.000,19.186,516.055,-1.410,750.674,-10.276,-0.017,0.764,37.096,-0.212,-0.137,-0.090,0.205,-0.107,-0.136,0.501,0.164,-85.609,-0.049,-0.477,-0.295,0.002,-0.005,-0.010,0.029,-0.001,-0.035,-0.610,-0.020,0.315,0.000,1,1,1,1,0.000,0.000,0.045,0.032,0.004,0.004,0.000,0.000,0.045,0.004,0.000,0
20260703_211105,case01_boxes_2layer,6,62.2,1.000,19.293,514.948,-1.412,750.756,-10.298,-0.030,0.754,37.172,-0.220,-0.128,-0.096,0.212,-0.113,-0.126,0.477,0.100,-85.641,-0.242,-0.637,-0.325,0.005,-0.005,-0.011,0.030,-0.001,-0.010,-0.594,-0.020,0.312,0.000,1,1,1,1,0.000,0.000,0.044,0.031,0.003,0.003,0.000,0.000,0.044,0.003,0.000,0
20260703_211105,case01_boxes_2layer,6,62.2,1.000,19.394,513.915,-1.416,750.831,-10.317,-0.035,0.746,37.238,-0.189,-0.057,-0.083,0.182,-0.097,-0.056,0.439,0.042,-85.672,-0.382,-0.575,-0.304,0.007,-0.005,-0.010,0.025,0.000,0.011,-0.640,-0.021,0.309,0.000,1,1,1,1,-0.001,0.000,0.043,0.030,0.004,0.004,0.000,0.000,0.043,0.004,0.000,0
20260703_211105,case01_boxes_2layer,6,62.2,1.000,19.506,512.759,-1.419,750.914,-10.337,-0.034,0.737,37.306,-0.197,0.014,-0.085,0.190,-0.099,0.015,0.381,-0.009,-85.706,-0.579,-0.513,-0.337,0.010,-0.005,-0.007,0.025,0.001,0.025,-0.614,-0.020,0.306,0.000,1,1,1,1,-0.001,0.000,0.042,0.029,0.004,0.004,0.000,0.000,0.042,0.004,0.000,0
20260703_211105,case01_boxes_2layer,6,62.2,1.000,19.606,511.724,-1.423,750.988,-10.354,-0.027,0.730,37.366,-0.171,0.068,-0.072,0.166,-0.084,0.068,0.318,-0.039,-85.735,-0.629,-0.297,-0.297,0.011,-0.005,-0.005,0.018,0.001,0.027,-0.579,-0.019,0.304,0.000,1,1,1,1,-0.001,0.000,0.041,0.029,0.003,0.003,0.000,0.000,0.041,0.003,0.000,0
20260703_211105,case01_boxes_2layer,6,62.2,1.000,19.718,510.561,-1.425,751.070,-10.372,-0.017,0.723,37.429,-0.181,0.104,-0.072,0.175,-0.085,0.104,0.238,-0.053,-85.768,-0.798,-0.144,-0.328,0.013,-0.005,-0.002,0.014,0.001,0.028,-0.550,-0.018,0.301,0.000,1,1,1,1,-0.001,0.000,0.042,0.028,0.003,0.003,0.000,0.000,0.042,0.003,0.000,0
20260703_211105,case01_boxes_2layer,6,62.2,1.000,19.822,509.484,-1.426,751.145,-10.389,-0.007,0.717,37.490,-0.174,0.100,-0.063,0.169,-0.075,0.100,0.159,-0.051,-85.798,-0.791,0.019,-0.296,0.014,-0.005,0.000,0.008,0.001,0.022,-0.595,-0.017,0.299,0.000,1,1,1,1,-0.001,0.000,0.042,0.028,0.003,0.003,0.000,0.000,0.042,0.003,0.000,0
20260703_211105,case01_boxes_2layer,6,62.2,1.000,19.930,508.360,-1.427,751.222,-10.404,0.000,0.712,37.544,-0.153,0.067,-0.045,0.149,-0.056,0.067,0.075,-0.038,-85.828,-0.844,0.129,-0.301,0.014,-0.005,0.002,0.001,0.002,0.013,-0.549,-0.018,0.297,0.000,1,1,1,1,-0.001,0.000,0.042,0.028,0.003,0.003,0.000,0.000,0.042,0.003,0.000,0
20260703_211105,case01_boxes_2layer,6,62.2,1.000,20.038,507.235,-1.426,751.299,-10.421,0.004,0.708,37.601,-0.162,0.038,-0.039,0.159,-0.051,0.037,-0.008,-0.020,-85.857,-0.829,0.186,-0.290,0.013,-0.005,0.002,-0.004,0.002,0.006,-0.516,-0.017,0.295,0.000,1,1,1,1,-0.001,0.000,0.043,0.028,0.002,0.002,0.000,0.000,0.043,0.002,0.000,0
20260703_211105,case01_boxes_2layer,6,62.2,1.000,20.146,506.108,-1.426,751.376,-10.436,0.004,0.705,37.657,-0.156,0.003,-0.029,0.154,-0.040,0.003,-0.087,0.000,-85.884,-0.783,0.195,-0.277,0.012,-0.004,0.002,-0.010,0.002,-0.001,-0.490,-0.016,0.292,0.000,1,1,1,1,0.000,0.000,0.043,0.028,0.002,0.002,0.000,0.000,0.043,0.002,0.000,0
20260703_211105,case01_boxes_2layer,6,62.2,1.000,20.250,505.024,-1.426,751.449,-10.450,0.002,0.703,37.705,-0.137,-0.019,-0.020,0.136,-0.029,-0.019,-0.155,0.016,-85.910,-0.686,0.159,-0.255,0.011,-0.004,0.002,-0.013,0.002,-0.005,-0.457,-0.015,0.290,0.000,1,1,1,1,0.000,0.000,0.044,0.027,0.002,0.002,0.000,0.000,0.044,0.002,0.000,0
20260703_211105,case01_boxes_2layer,6,62.2,1.000,20.358,503.892,-1.426,751.525,-10.465,-0.001,0.702,37.757,-0.145,-0.031,-0.014,0.144,-0.024,-0.031,-0.218,0.027,-85.935,-0.625,0.115,-0.254,0.009,-0.004,0.001,-0.017,0.002,-0.008,-0.482,-0.014,0.288,0.000,1,1,1,1,0.000,0.000,0.044,0.027,0.002,0.002,0.000,0.000,0.044,0.002,0.000,0
20260703_211105,case01_boxes_2layer,6,62.2,1.000,20.462,502.806,-1.426,751.598,-10.479,-0.004,0.701,37.807,-0.139,-0.029,-0.007,0.139,-0.016,-0.029,-0.268,0.032,-85.959,-0.500,0.054,-0.234,0.007,-0.004,0.000,-0.019,0.002,-0.008,-0.463,-0.015,0.286,0.000,1,1,1,1,0.000,0.000,0.044,0.027,0.002,0.002,-0.001,-0.001,0.044,0.002,0.000,0
20260703_211105,case01_boxes_2layer,6,62.2,1.000,20.566,501.716,-1.426,751.671,-10.491,-0.006,0.701,37.851,-0.122,-0.018,-0.003,0.121,-0.012,-0.018,-0.307,0.033,-85.981,-0.395,0.003,-0.226,0.006,-0.004,-0.001,-0.018,0.001,-0.006,-0.443,-0.015,0.284,0.000,1,1,1,1,0.000,0.000,0.043,0.027,0.002,0.002,-0.001,-0.001,0.043,0.002,0.000,0
20260703_211105,case01_boxes_2layer,6,62.2,1.000,20.670,500.622,-1.427,751.744,-10.502,-0.007,0.701,37.893,-0.117,-0.007,-0.002,0.116,-0.010,-0.007,-0.336,0.029,-86.003,-0.287,-0.036,-0.221,0.004,-0.004,-0.001,-0.018,0.001,-0.004,-0.430,-0.014,0.283,0.000,1,1,1,1,0.000,0.000,0.043,0.026,0.002,0.002,-0.001,-0.001,0.043,0.002,0.000,0
20260703_211105,case01_boxes_2layer,6,62.2,1.000,20.774,499.528,-1.428,751.817,-10.515,-0.006,0.700,37.937,-0.123,0.005,-0.003,0.123,-0.011,0.005,-0.354,0.023,-86.025,-0.178,-0.060,-0.215,0.002,-0.004,-0.001,-0.019,0.000,-0.001,-0.427,-0.014,0.281,0.000,1,1,1,1,0.000,0.000,0.043,0.026,0.002,0.002,-0.001,-0.001,0.043,0.002,0.000,0
20260703_211105,case01_boxes_2layer,6,62.2,1.000,20.886,498.352,-1.428,751.896,-10.527,-0.004,0.700,37.979,-0.118,0.016,-0.006,0.117,-0.014,0.016,-0.361,0.016,-86.048,-0.075,-0.071,-0.230,0.000,-0.004,-0.001,-0.018,0.000,0.001,-0.470,-0.014,0.279,0.000,1,1,1,1,0.000,0.000,0.042,0.026,0.002,0.002,-0.001,-0.001,0.042,0.002,0.000,0
20260703_211105,case01_boxes_2layer,6,62.2,1.000,20.990,497.256,-1.429,751.969,-10.537,-0.002,0.699,38.016,-0.103,0.020,-0.007,0.102,-0.014,0.020,-0.358,0.010,-86.069,0.031,-0.060,-0.216,-0.001,-0.004,-0.001,-0.015,0.000,0.003,-0.468,-0.016,0.278,0.000,1,1,1,1,0.000,0.000,0.042,0.026,0.002,0.002,-0.001,-0.001,0.042,0.002,0.000,0
20260703_211105,case01_boxes_2layer,6,62.2,1.000,21.102,496.077,-1.429,752.047,-10.549,0.000,0.698,38.058,-0.119,0.026,-0.014,0.117,-0.022,0.026,-0.345,0.005,-86.093,0.129,-0.047,-0.238,-0.003,-0.004,0.000,-0.015,-0.001,0.005,-0.475,-0.016,0.276,0.000,1,1,1,1,0.000,0.000,0.041,0.026,0.002,0.002,-0.001,-0.001,0.041,0.002,0.000,0
20260703_211105,case01_boxes_2layer,6,62.2,1.000,21.206,494.978,-1.429,752.119,-10.558,0.002,0.696,38.092,-0.095,0.020,-0.013,0.094,-0.019,0.020,-0.325,0.003,-86.116,0.198,-0.024,-0.226,-0.004,-0.004,0.000,-0.011,0.000,0.004,-0.472,-0.016,0.275,0.000,1,1,1,1,0.000,0.000,0.041,0.025,0.002,0.002,-0.001,-0.001,0.041,0.002,0.000,0
20260703_211105,case01_boxes_2layer,6,62.2,1.000,21.310,493.878,-1.428,752.192,-10.567,0.004,0.694,38.125,-0.092,0.017,-0.019,0.091,-0.026,0.017,-0.299,0.002,-86.139,0.260,-0.006,-0.230,-0.005,-0.004,0.000,-0.009,-0.001,0.003,-0.474,-0.016,0.273,0.000,1,1,1,1,0.000,0.000,0.041,0.025,0.002,0.002,-0.001,-0.001,0.041,0.002,0.000,0
20260703_211105,case01_boxes_2layer,6,62.2,1.000,21.414,492.781,-1.428,752.263,-10.577,0.005,0.692,38.159,-0.098,0.013,-0.029,0.096,-0.036,0.013,-0.269,0.003,-86.163,0.307,0.009,-0.237,-0.005,-0.004,0.001,-0.007,-0.002,0.003,-0.528,-0.016,0.272,0.000,1,1,1,1,0.000,0.000,0.041,0.026,0.003,0.003,-0.001,-0.001,0.041,0.003,0.000,0
20260703_211105,case01_boxes_2layer,6,62.2,1.000,21.518,491.679,-1.427,752.335,-10.586,0.006,0.688,38.189,-0.086,0.007,-0.031,0.084,-0.037,0.006,-0.234,0.005,-86.188,0.343,0.018,-0.249,-0.006,-0.004,0.001,-0.004,-0.002,0.001,-0.531,-0.018,0.271,0.000,1,1,1,1,0.000,0.000,0.040,0.026,0.003,0.003,0.000,0.000,0.040,0.003,0.000,0
20260703_211105,case01_boxes_2layer,6,62.2,1.000,21.622,490.580,-1.427,752.406,-10.595,0.006,0.684,38.221,-0.092,0.002,-0.040,0.089,-0.046,0.002,-0.198,0.007,-86.213,0.362,0.022,-0.258,-0.006,-0.004,0.001,-0.002,-0.002,0.000,-0.543,-0.018,0.269,0.000,1,1,1,1,0.000,0.000,0.040,0.025,0.003,0.003,0.000,0.000,0.040,0.003,0.000,0
20260703_211105,case01_boxes_2layer,6,62.2,1.000,21.726,489.477,-1.426,752.477,-10.603,0.006,0.680,38.249,-0.081,-0.002,-0.043,0.078,-0.049,-0.002,-0.161,0.009,-86.240,0.370,0.021,-0.270,-0.006,-0.005,0.001,0.000,-0.002,-0.001,-0.547,-0.018,0.268,0.000,1,1,1,1,0.000,0.000,0.040,0.025,0.003,0.003,0.000,0.000,0.040,0.003,0.000,0
20260703_211105,case01_boxes_2layer,6,62.2,1.000,21.834,488.330,-1.425,752.550,-10.612,0.005,0.674,38.279,-0.086,-0.006,-0.055,0.082,-0.061,-0.006,-0.123,0.011,-86.270,0.378,0.018,-0.294,-0.006,-0.005,0.001,0.002,-0.002,-0.001,-0.556,-0.019,0.267,0.000,1,1,1,1,0.000,0.000,0.039,0.025,0.003,0.003,0.000,0.000,0.039,0.003,0.000,0
20260703_211105,case01_boxes_2layer,6,62.2,1.000,21.938,487.223,-1.425,752.620,-10.619,0.005,0.669,38.305,-0.076,-0.007,-0.054,0.072,-0.059,-0.007,-0.089,0.012,-86.299,0.347,0.011,-0.295,-0.006,-0.005,0.000,0.004,-0.002,-0.001,-0.607,-0.019,0.266,0.000,1,1,1,1,0.000,0.000,0.039,0.025,0.003,0.003,0.000,0.000,0.039,0.003,0.000,0
20260703_211105,case01_boxes_2layer,6,62.2,1.000,22.042,486.118,-1.424,752.689,-10.627,0.004,0.663,38.332,-0.080,-0.008,-0.065,0.076,-0.070,-0.008,-0.057,0.013,-86.330,0.319,0.004,-0.305,-0.005,-0.005,0.000,0.006,-0.002,-0.001,-0.617,-0.021,0.265,0.000,1,1,1,1,0.000,0.000,0.039,0.025,0.003,0.003,0.000,0.000,0.039,0.003,0.000,0
20260703_211105,case01_boxes_2layer,6,62.2,1.000,22.146,485.016,-1.424,752.758,-10.634,0.003,0.656,38.356,-0.071,-0.008,-0.064,0.066,-0.068,-0.008,-0.028,0.012,-86.361,0.283,-0.002,-0.316,-0.004,-0.005,0.000,0.006,-0.002,-0.001,-0.613,-0.021,0.264,0.000,1,1,1,1,0.000,0.000,0.039,0.025,0.003,0.003,0.000,0.000,0.039,0.003,0.000,0
20260703_211105,case01_boxes_2layer,6,62.2,1.000,22.254,483.866,-1.424,752.828,-10.642,0.002,0.649,38.382,-0.075,-0.008,-0.072,0.070,-0.076,-0.008,-0.003,0.012,-86.395,0.251,-0.006,-0.339,-0.004,-0.006,0.000,0.008,-0.001,-0.001,-0.616,-0.021,0.263,0.000,1,1,1,1,0.000,0.000,0.038,0.025,0.003,0.003,0.000,0.000,0.038,0.003,0.000,0
20260703_211105,case01_boxes_2layer,6,62.2,1.000,22.362,482.716,-1.424,752.898,-10.649,0.002,0.641,38.406,-0.072,-0.007,-0.077,0.067,-0.081,-0.007,0.017,0.011,-86.430,0.200,-0.008,-0.347,-0.003,-0.006,0.000,0.008,-0.001,-0.001,-0.616,-0.021,0.262,0.000,1,1,1,1,0.000,0.000,0.038,0.025,0.003,0.003,0.000,0.000,0.038,0.003,0.000,0
20260703_211105,case01_boxes_2layer,6,62.2,1.000,22.470,481.568,-1.423,752.966,-10.655,0.001,0.634,38.427,-0.063,-0.005,-0.072,0.059,-0.076,-0.005,0.032,0.010,-86.465,0.148,-0.008,-0.356,-0.002,-0.006,0.000,0.008,-0.001,0.000,-0.605,-0.020,0.261,0.000,1,1,1,1,0.000,0.000,0.038,0.025,0.003,0.003,0.000,0.000,0.038,0.003,0.000,0
20260703_211105,case01_boxes_2layer,6,62.2,1.000,22.573,480.461,-1.423,753.032,-10.662,0.000,0.626,38.450,-0.067,-0.005,-0.081,0.062,-0.085,-0.005,0.041,0.010,-86.500,0.093,-0.007,-0.348,-0.001,-0.006,0.000,0.009,-0.001,0.000,-0.670,-0.020,0.260,0.000,1,1,1,1,0.000,0.000,0.038,0.025,0.004,0.004,0.000,0.000,0.038,0.004,0.000,0
20260703_211105,case01_boxes_2layer,6,62.2,1.000,22.681,479.309,-1.423,753.099,-10.669,0.000,0.618,38.471,-0.065,-0.005,-0.081,0.060,-0.085,-0.005,0.045,0.009,-86.537,0.046,-0.005,-0.367,0.000,-0.006,0.000,0.008,-0.001,0.000,-0.665,-0.020,0.259,0.000,1,1,1,1,0.000,0.000,0.038,0.025,0.004,0.004,0.000,0.000,0.038,0.004,0.000,0
20260703_211105,case01_boxes_2layer,6,62.2,1.000,22.786,478.196,-1.423,753.163,-10.674,0.000,0.611,38.490,-0.056,-0.004,-0.071,0.052,-0.074,-0.004,0.045,0.009,-86.573,-0.002,-0.003,-0.357,0.000,-0.006,0.000,0.007,0.000,0.000,-0.646,-0.022,0.258,0.000,1,1,1,1,0.000,0.000,0.038,0.025,0.003,0.003,0.000,0.000,0.038,0.003,0.000,0
20260703_211105,case01_boxes_2layer,6,62.2,1.000,22.890,477.088,-1.423,753.226,-10.680,-0.001,0.604,38.508,-0.055,-0.004,-0.074,0.050,-0.077,-0.004,0.041,0.009,-86.608,-0.043,-0.001,-0.358,0.001,-0.006,0.000,0.006,-0.001,0.000,-0.629,-0.021,0.258,0.000,1,1,1,1,0.000,0.000,0.038,0.025,0.003,0.003,0.000,0.000,0.038,0.003,0.000,0
20260703_211105,case01_boxes_2layer,6,62.2,1.000,22.994,475.975,-1.424,753.289,-10.685,-0.001,0.596,38.527,-0.058,-0.004,-0.080,0.053,-0.083,-0.004,0.033,0.009,-86.645,-0.079,0.000,-0.363,0.002,-0.006,0.000,0.006,0.000,0.000,-0.624,-0.021,0.257,0.000,1,1,1,1,0.000,0.000,0.038,0.025,0.003,0.003,0.000,0.000,0.038,0.003,0.000,0
20260703_211105,case01_boxes_2layer,6,62.2,1.000,23.106,474.778,-1.424,753.355,-10.691,-0.001,0.588,38.546,-0.056,-0.003,-0.079,0.051,-0.082,-0.003,0.021,0.009,-86.684,-0.119,0.001,-0.390,0.002,-0.006,0.000,0.005,0.000,0.000,-0.617,-0.021,0.256,0.000,1,1,1,1,0.000,0.000,0.037,0.025,0.003,0.003,0.000,0.000,0.037,0.003,0.000,0
20260703_211105,case01_boxes_2layer,6,62.2,1.000,23.210,473.665,-1.424,753.416,-10.696,-0.002,0.581,38.562,-0.049,-0.002,-0.070,0.044,-0.073,-0.002,0.008,0.009,-86.720,-0.135,0.001,-0.363,0.002,-0.006,0.000,0.003,0.000,0.000,-0.660,-0.020,0.255,0.000,1,1,1,1,0.000,0.000,0.037,0.024,0.003,0.003,0.000,0.000,0.037,0.003,0.000,0
20260703_211105,case01_boxes_2layer,6,62.2,1.000,23.322,472.467,-1.424,753.480,-10.701,-0.002,0.573,38.580,-0.056,-0.002,-0.080,0.051,-0.083,-0.002,-0.009,0.009,-86.759,-0.164,0.001,-0.389,0.003,-0.006,0.000,0.003,0.000,0.000,-0.662,-0.020,0.255,0.000,1,1,1,1,0.000,0.000,0.037,0.024,0.003,0.003,0.000,0.000,0.037,0.003,0.000,0
20260703_211105,case01_boxes_2layer,6,62.2,1.000,23.434,471.267,-1.424,753.544,-10.706,-0.002,0.565,38.597,-0.049,-0.001,-0.073,0.045,-0.075,-0.001,-0.026,0.009,-86.798,-0.175,0.000,-0.389,0.003,-0.006,0.000,0.001,0.000,0.000,-0.655,-0.020,0.254,0.000,1,1,1,1,0.000,0.000,0.037,0.024,0.003,0.003,0.000,0.000,0.037,0.003,0.000,0
20260703_211105,case01_boxes_2layer,6,62.2,1.000,23.542,470.114,-1.425,753.605,-10.711,-0.002,0.558,38.612,-0.047,0.000,-0.069,0.043,-0.072,0.000,-0.043,0.009,-86.835,-0.172,-0.001,-0.371,0.003,-0.006,0.000,0.000,0.000,0.000,-0.648,-0.022,0.253,0.000,1,1,1,1,0.000,0.000,0.037,0.024,0.003,0.003,0.000,0.000,0.037,0.003,0.000,0
20260703_211105,case01_boxes_2layer,6,62.2,1.000,23.642,469.041,-1.425,753.660,-10.715,-0.002,0.552,38.626,-0.041,0.000,-0.061,0.038,-0.063,0.000,-0.059,0.009,-86.869,-0.157,-0.001,-0.345,0.003,-0.006,0.000,-0.001,0.000,0.000,-0.628,-0.021,0.253,0.000,1,1,1,1,0.000,0.000,0.037,0.024,0.003,0.003,0.000,0.000,0.037,0.003,0.000,0
20260703_211105,case01_boxes_2layer,6,62.2,1.000,23.742,467.967,-1.425,753.716,-10.719,-0.002,0.546,38.639,-0.040,0.001,-0.061,0.036,-0.063,0.001,-0.074,0.009,-86.904,-0.150,-0.002,-0.343,0.003,-0.006,0.000,-0.002,0.000,0.000,-0.612,-0.021,0.252,0.000,1,1,1,1,0.000,0.000,0.037,0.024,0.003,0.003,0.000,0.000,0.037,0.003,0.000,0
20260703_211105,case01_boxes_2layer,6,62.2,1.000,23.850,466.810,-1.425,753.774,-10.723,-0.002,0.540,38.652,-0.038,0.002,-0.061,0.035,-0.063,0.002,-0.089,0.008,-86.941,-0.149,-0.002,-0.369,0.002,-0.006,0.000,-0.002,0.000,0.000,-0.600,-0.020,0.252,0.000,1,1,1,1,0.000,0.000,0.037,0.024,0.002,0.002,0.000,0.000,0.037,0.002,0.000,0
20260703_211105,case01_boxes_2layer,6,62.2,1.000,23.954,465.697,-1.425,753.830,-10.727,-0.002,0.533,38.665,-0.040,0.002,-0.066,0.037,-0.068,0.002,-0.102,0.008,-86.976,-0.127,-0.002,-0.355,0.002,-0.006,0.000,-0.003,0.000,0.000,-0.656,-0.020,0.251,0.000,1,1,1,1,0.000,0.000,0.037,0.024,0.003,0.003,0.000,0.000,0.037,0.003,0.000,0
20260703_211105,case01_boxes_2layer,6,62.2,1.000,24.062,464.535,-1.425,753.887,-10.731,-0.001,0.527,38.678,-0.039,0.003,-0.065,0.035,-0.067,0.003,-0.113,0.008,-87.013,-0.112,-0.002,-0.371,0.002,-0.006,0.000,-0.004,0.000,0.000,-0.656,-0.020,0.251,0.000,1,1,1,1,0.000,0.000,0.037,0.024,0.003,0.003,0.000,0.000,0.037,0.003,0.000,0
20260703_211105,case01_boxes_2layer,6,62.2,1.000,24.166,463.419,-1.426,753.942,-10.734,-0.001,0.521,38.689,-0.034,0.003,-0.059,0.031,-0.060,0.003,-0.121,0.008,-87.049,-0.085,-0.001,-0.357,0.001,-0.006,0.000,-0.004,0.000,0.000,-0.644,-0.022,0.250,0.000,1,1,1,1,0.000,0.000,0.037,0.024,0.003,0.003,0.000,0.000,0.037,0.003,0.000,0
20260703_211105,case01_boxes_2layer,6,62.2,1.000,24.270,462.306,-1.426,753.995,-10.738,-0.001,0.515,38.700,-0.033,0.003,-0.059,0.030,-0.061,0.003,-0.128,0.008,-87.085,-0.063,-0.001,-0.359,0.001,-0.006,0.000,-0.004,0.000,0.000,-0.633,-0.021,0.250,0.000,1,1,1,1,0.000,0.000,0.037,0.024,0.003,0.003,0.000,0.000,0.037,0.003,0.000,0
20260703_211105,case01_boxes_2layer,6,62.2,1.000,24.374,461.187,-1.426,754.049,-10.741,0.000,0.508,38.711,-0.035,0.003,-0.067,0.031,-0.069,0.003,-0.132,0.008,-87.121,-0.041,-0.001,-0.363,0.000,-0.006,0.000,-0.004,-0.001,0.000,-0.634,-0.021,0.249,0.000,1,1,1,1,0.000,0.000,0.037,0.024,0.003,0.003,0.000,0.000,0.037,0.003,0.000,0
20260703_211105,case01_boxes_2layer,6,62.2,1.000,24.478,460.070,-1.426,754.101,-10.744,0.000,0.502,38.721,-0.030,0.003,-0.061,0.027,-0.063,0.003,-0.134,0.008,-87.158,-0.019,0.000,-0.366,0.000,-0.006,0.000,-0.003,-0.001,0.000,-0.629,-0.021,0.249,0.000,1,1,1,1,0.000,0.000,0.037,0.024,0.003,0.003,0.000,0.000,0.037,0.003,0.000,0
20260703_211105,case01_boxes_2layer,6,62.2,1.000,24.582,458.949,-1.426,754.153,-10.747,0.000,0.495,38.732,-0.032,0.003,-0.069,0.029,-0.070,0.003,-0.133,0.008,-87.195,0.003,0.000,-0.371,0.000,-0.006,0.000,-0.004,-0.001,0.000,-0.632,-0.021,0.248,0.000,1,1,1,1,0.000,0.000,0.037,0.024,0.003,0.003,0.000,0.000,0.037,0.003,0.000,0
20260703_211105,case01_boxes_2layer,6,62.2,1.000,24.682,457.874,-1.426,754.203,-10.750,0.000,0.489,38.741,-0.028,0.002,-0.064,0.025,-0.065,0.002,-0.131,0.008,-87.231,0.020,0.000,-0.360,-0.001,-0.006,0.000,-0.003,-0.001,0.000,-0.682,-0.023,0.248,0.000,1,1,1,1,0.000,0.000,0.037,0.024,0.003,0.003,0.000,0.000,0.037,0.003,0.000,0
20260703_211105,case01_boxes_2layer,6,62.2,1.000,24.786,456.758,-1.426,754.253,-10.753,0.001,0.483,38.750,-0.027,0.002,-0.064,0.024,-0.066,0.002,-0.128,0.008,-87.269,0.038,0.000,-0.379,-0.001,-0.006,0.000,-0.003,-0.001,0.000,-0.675,-0.023,0.248,0.000,1,1,1,1,0.000,0.000,0.037,0.024,0.003,0.003,0.000,0.000,0.037,0.003,0.000,0
20260703_211105,case01_boxes_2layer,6,62.2,1.000,24.893,455.601,-1.426,754.304,-10.756,0.001,0.475,38.759,-0.029,0.002,-0.075,0.026,-0.076,0.001,-0.122,0.008,-87.308,0.054,0.000,-0.398,-0.001,-0.007,0.000,-0.002,-0.001,0.000,-0.683,-0.023,0.247,0.000,1,1,1,1,0.000,0.000,0.037,0.024,0.003,0.003,0.000,0.000,0.037,0.003,0.000,0
20260703_211105,case01_boxes_2layer,6,62.2,1.000,24.997,454.482,-1.426,754.354,-10.758,0.001,0.468,38.767,-0.026,0.001,-0.069,0.022,-0.070,0.001,-0.116,0.008,-87.348,0.065,0.000,-0.391,-0.001,-0.007,0.000,-0.002,-0.001,0.000,-0.678,-0.023,0.247,0.000,1,1,1,1,0.000,0.000,0.037,0.024,0.003,0.003,0.000,0.000,0.037,0.003,0.000,0
20260703_211105,case01_boxes_2layer,6,62.2,1.000,25.110,453.273,-1.425,754.406,-10.761,0.001,0.460,38.776,-0.027,0.001,-0.079,0.024,-0.080,0.001,-0.108,0.008,-87.391,0.080,0.000,-0.431,-0.001,-0.007,0.000,-0.001,-0.001,0.000,-0.684,-0.023,0.246,0.000,1,1,1,1,0.000,0.000,0.037,0.023,0.003,0.003,0.000,0.000,0.037,0.003,0.000,0
20260703_211105,case01_boxes_2layer,6,62.2,1.000,25.222,452.067,-1.425,754.457,-10.764,0.001,0.452,38.784,-0.028,0.000,-0.087,0.025,-0.089,0.000,-0.099,0.008,-87.434,0.085,0.000,-0.436,-0.001,-0.007,0.000,-0.001,-0.001,0.000,-0.703,-0.024,0.246,0.000,1,1,1,1,0.000,0.000,0.036,0.023,0.003,0.003,0.000,0.000,0.036,0.003,0.000,0
20260703_211105,case01_boxes_2layer,6,62.2,1.000,25.322,450.989,-1.425,754.501,-10.766,0.001,0.444,38.792,-0.023,0.000,-0.077,0.020,-0.078,0.000,-0.091,0.008,-87.474,0.078,0.000,-0.396,-0.001,-0.007,0.000,0.000,-0.001,0.000,-0.697,-0.023,0.246,0.000,1,1,1,1,0.000,0.000,0.036,0.023,0.003,0.003,0.000,0.000,0.036,0.003,0.000,0
20260703_211105,case01_boxes_2layer,6,62.2,1.000,25.434,449.785,-1.425,754.551,-10.769,0.001,0.435,38.799,-0.024,0.000,-0.085,0.021,-0.086,0.000,-0.083,0.008,-87.519,0.087,0.000,-0.450,-0.001,-0.007,0.000,0.000,-0.001,0.000,-0.705,-0.024,0.245,0.000,1,1,1,1,0.000,0.000,0.036,0.023,0.003,0.003,0.000,0.000,0.036,0.003,0.000,0
20260703_211105,case01_boxes_2layer,6,62.2,1.000,25.542,448.625,-1.425,754.597,-10.771,0.001,0.427,38.806,-0.023,-0.001,-0.088,0.020,-0.089,-0.001,-0.075,0.008,-87.563,0.081,0.000,-0.441,-0.001,-0.007,0.000,0.001,-0.001,0.000,-0.710,-0.024,0.245,0.000,1,1,1,1,0.000,0.000,0.036,0.023,0.003,0.003,0.000,0.000,0.036,0.003,0.000,0
20260703_211105,case01_boxes_2layer,6,62.2,1.000,25.654,447.415,-1.425,754.644,-10.773,0.001,0.418,38.813,-0.023,-0.001,-0.090,0.019,-0.091,-0.001,-0.067,0.008,-87.610,0.078,0.000,-0.467,-0.001,-0.007,0.000,0.001,-0.001,0.000,-0.719,-0.024,0.245,0.000,1,1,1,1,0.000,0.000,0.036,0.023,0.003,0.003,0.000,0.000,0.036,0.003,0.000,0
20260703_211105,case01_boxes_2layer,6,62.2,1.000,25.766,446.210,-1.425,754.691,-10.775,0.001,0.408,38.820,-0.022,-0.001,-0.094,0.018,-0.094,-0.001,-0.060,0.008,-87.657,0.069,0.000,-0.472,-0.001,-0.007,0.000,0.001,-0.001,0.000,-0.793,-0.024,0.245,0.000,1,1,1,1,0.000,0.000,0.036,0.023,0.004,0.004,0.000,0.000,0.036,0.004,0.000,0
20260703_211105,case01_boxes_2layer,6,62.2,1.000,25.874,445.047,-1.425,754.734,-10.778,0.001,0.399,38.826,-0.021,-0.001,-0.093,0.017,-0.094,-0.001,-0.054,0.008,-87.703,0.057,0.000,-0.464,-0.001,-0.008,0.000,0.002,-0.001,0.000,-0.798,-0.025,0.244,0.000,1,1,1,1,0.000,0.000,0.036,0.023,0.004,0.004,0.000,0.000,0.036,0.004,0.000,0
20260703_211105,case01_boxes_2layer,6,62.2,1.000,25.986,443.837,-1.425,754.778,-10.780,0.000,0.390,38.832,-0.020,-0.001,-0.095,0.016,-0.095,-0.001,-0.049,0.008,-87.752,0.048,0.000,-0.489,-0.001,-0.008,0.000,0.002,-0.001,0.000,-0.806,-0.025,0.244,0.000,1,1,1,1,0.000,0.000,0.036,0.023,0.004,0.004,0.000,0.000,0.036,0.004,0.000,0
20260703_211105,case01_boxes_2layer,6,62.2,1.000,26.093,442.678,-1.425,754.820,-10.782,0.000,0.380,38.837,-0.019,-0.001,-0.096,0.016,-0.097,-0.001,-0.046,0.008,-87.800,0.035,0.000,-0.474,0.000,-0.008,0.000,0.002,-0.001,0.000,-0.815,-0.025,0.244,0.000,1,1,1,1,0.000,0.000,0.036,0.023,0.004,0.004,0.000,0.000,0.036,0.004,0.000,0
20260703_211105,case01_boxes_2layer,6,62.2,1.000,26.202,441.513,-1.425,754.860,-10.783,0.000,0.370,38.843,-0.019,-0.001,-0.099,0.015,-0.099,-0.001,-0.043,0.008,-87.848,0.024,0.000,-0.482,0.000,-0.008,0.000,0.002,-0.001,0.000,-0.819,-0.025,0.243,0.000,1,1,1,1,0.000,0.000,0.036,0.023,0.004,0.004,0.000,0.000,0.036,0.004,0.000,0
20260703_211105,case01_boxes_2layer,6,62.2,1.000,26.306,440.390,-1.425,754.898,-10.785,0.000,0.361,38.848,-0.016,-0.001,-0.089,0.013,-0.089,-0.001,-0.042,0.008,-87.895,0.013,0.000,-0.471,0.000,-0.008,0.000,0.002,-0.001,0.000,-0.807,-0.027,0.243,0.000,1,1,1,1,0.000,0.000,0.036,0.023,0.004,0.004,0.000,0.000,0.036,0.004,0.000,0
20260703_211105,case01_boxes_2layer,6,62.2,1.000,26.406,439.309,-1.425,754.934,-10.787,0.000,0.352,38.852,-0.016,-0.001,-0.089,0.012,-0.090,-0.001,-0.042,0.008,-87.941,0.003,0.000,-0.457,0.000,-0.008,0.000,0.002,-0.001,0.000,-0.795,-0.027,0.243,0.000,1,1,1,1,0.000,0.000,0.036,0.023,0.004,0.004,0.000,0.000,0.036,0.004,0.000,0
20260703_211105,case01_boxes_2layer,6,62.2,1.000,26.510,438.187,-1.425,754.970,-10.788,0.000,0.343,38.857,-0.015,-0.001,-0.090,0.012,-0.091,-0.001,-0.042,0.008,-87.989,-0.005,0.000,-0.479,0.000,-0.008,0.000,0.001,-0.001,0.000,-0.788,-0.027,0.243,0.000,1,1,1,1,0.000,0.000,0.036,0.023,0.003,0.003,0.000,0.000,0.036,0.003,0.000,0
20260703_211105,case01_boxes_2layer,6,62.2,1.000,26.618,437.023,-1.425,755.007,-10.790,0.000,0.333,38.861,-0.016,-0.001,-0.101,0.013,-0.102,-0.001,-0.044,0.008,-88.039,-0.013,0.000,-0.502,0.000,-0.008,0.000,0.001,-0.001,0.000,-0.792,-0.027,0.243,0.000,1,1,1,1,0.000,0.000,0.036,0.023,0.003,0.003,0.000,0.000,0.036,0.003,0.000,0
20260703_211105,case01_boxes_2layer,6,62.2,1.000,26.730,435.812,-1.425,755.043,-10.791,0.000,0.323,38.866,-0.015,-0.001,-0.102,0.012,-0.102,-0.001,-0.046,0.008,-88.091,-0.021,0.000,-0.527,0.000,-0.008,0.000,0.001,-0.001,0.000,-0.798,-0.027,0.242,0.000,1,1,1,1,0.000,0.000,0.036,0.023,0.003,0.003,0.000,0.000,0.036,0.003,0.000,0
20260703_211105,case01_boxes_2layer,6,62.2,1.000,26.830,434.732,-1.425,755.075,-10.793,0.000,0.313,38.870,-0.015,-0.001,-0.102,0.011,-0.102,-0.001,-0.048,0.008,-88.139,-0.023,0.000,-0.475,0.000,-0.008,0.000,0.001,-0.001,0.000,-0.804,-0.027,0.242,0.000,1,1,1,1,0.000,0.000,0.036,0.023,0.003,0.003,0.001,0.001,0.036,0.003,0.000,0
20260703_211105,case01_boxes_2layer,6,62.2,1.000,26.938,433.570,-1.425,755.108,-10.794,0.000,0.303,38.874,-0.013,0.000,-0.094,0.010,-0.094,0.000,-0.051,0.008,-88.190,-0.029,-0.001,-0.515,0.000,-0.008,0.000,0.000,-0.001,0.000,-0.795,-0.027,0.242,0.000,1,1,1,1,0.000,0.000,0.036,0.023,0.003,0.003,0.001,0.001,0.036,0.003,0.000,0
20260703_211105,case01_boxes_2layer,6,62.2,1.000,27.038,432.488,-1.425,755.138,-10.795,0.000,0.294,38.877,-0.012,0.000,-0.095,0.009,-0.095,0.000,-0.054,0.007,-88.239,-0.029,0.000,-0.483,0.001,-0.008,0.000,0.000,-0.001,0.000,-0.861,-0.027,0.242,0.000,1,1,1,1,0.000,0.000,0.036,0.023,0.004,0.004,0.001,0.001,0.036,0.004,0.000,0
20260703_211105,case01_boxes_2layer,6,62.2,1.000,27.142,431.368,-1.425,755.168,-10.796,0.000,0.283,38.881,-0.013,0.000,-0.104,0.010,-0.104,0.000,-0.057,0.007,-88.289,-0.031,-0.001,-0.504,0.001,-0.009,0.000,0.000,-0.001,0.000,-0.869,-0.027,0.242,0.000,1,1,1,1,0.000,0.000,0.036,0.023,0.004,0.004,0.001,0.001,0.036,0.004,0.000,0
20260703_211105,case01_boxes_2layer,6,62.2,1.000,27.242,430.287,-1.425,755.196,-10.798,0.000,0.274,38.884,-0.011,0.000,-0.094,0.009,-0.095,0.000,-0.060,0.007,-88.338,-0.030,0.000,-0.490,0.001,-0.009,0.000,0.000,-0.001,0.000,-0.862,-0.029,0.242,0.000,1,1,1,1,0.000,0.000,0.036,0.023,0.004,0.004,0.001,0.001,0.036,0.004,0.000,0
20260703_211105,case01_boxes_2layer,6,62.2,1.000,27.350,429.122,-1.425,755.225,-10.799,0.000,0.266,38.887,-0.011,0.000,-0.079,0.008,-0.079,0.000,-0.063,0.007,-88.391,-0.032,0.000,-0.525,0.001,-0.008,0.000,0.000,0.002,0.000,-0.790,-0.027,0.241,0.000,1,1,1,1,0.000,0.000,0.036,0.023,0.003,0.003,0.001,0.001,0.036,0.003,0.000,0
20260703_211105,case01_boxes_2layer,6,62.2,1.000,27.462,427.910,-1.425,755.255,-10.800,0.000,0.256,38.890,-0.012,0.000,-0.104,0.010,-0.105,0.000,-0.067,0.007,-88.444,-0.033,0.000,-0.534,0.000,-0.008,0.000,0.000,0.001,0.000,-0.822,-0.028,0.241,0.000,1,1,1,1,0.000,0.000,0.036,0.023,0.004,0.004,0.001,0.001,0.036,0.004,0.000,0
20260703_211105,case01_boxes_2layer,6,62.2,1.000,27.570,426.746,-1.425,755.282,-10.801,0.000,0.247,38.893,-0.010,0.000,-0.091,0.007,-0.091,0.000,-0.069,0.007,-88.495,-0.028,0.000,-0.512,0.000,-0.008,0.000,-0.001,0.000,0.000,-0.830,-0.028,0.241,0.000,1,1,1,1,0.000,0.000,0.036,0.023,0.004,0.004,0.001,0.001,0.036,0.004,0.000,0
20260703_211105,case01_boxes_2layer,6,62.2,1.000,27.682,425.533,-1.425,755.309,-10.802,0.000,0.235,38.896,-0.011,0.001,-0.116,0.008,-0.117,0.000,-0.072,0.007,-88.549,-0.025,0.000,-0.540,0.000,-0.008,0.000,-0.001,-0.002,0.000,-0.870,-0.029,0.241,0.000,1,1,1,1,0.000,0.000,0.036,0.023,0.004,0.004,0.001,0.001,0.036,0.004,0.000,0
20260703_211105,case01_boxes_2layer,6,62.2,1.000,27.790,424.368,-1.425,755.333,-10.803,0.000,0.225,38.899,-0.009,0.001,-0.099,0.006,-0.100,0.000,-0.074,0.007,-88.602,-0.018,0.000,-0.530,0.000,-0.009,0.000,-0.001,-0.002,0.000,-0.878,-0.030,0.241,0.000,1,1,1,1,0.000,0.000,0.036,0.023,0.004,0.004,0.001,0.001,0.036,0.004,0.000,0
20260703_211105,case01_boxes_2layer,6,62.2,1.000,27.902,423.158,-1.425,755.358,-10.804,0.000,0.213,38.902,-0.010,0.001,-0.124,0.007,-0.125,0.001,-0.075,0.007,-88.659,-0.012,0.000,-0.565,0.000,-0.009,0.000,-0.001,-0.003,0.000,-0.919,-0.031,0.241,0.000,1,1,1,1,0.000,0.000,0.036,0.023,0.004,0.005,0.001,0.001,0.036,0.005,0.000,0
20260703_211105,case01_boxes_2layer,6,62.2,1.000,28.010,421.990,-1.425,755.380,-10.805,0.000,0.202,38.904,-0.008,0.001,-0.105,0.006,-0.105,0.001,-0.075,0.007,-88.715,-0.005,0.000,-0.561,0.000,-0.009,0.000,-0.001,-0.002,0.000,-0.924,-0.031,0.241,0.000,1,1,1,1,0.000,0.000,0.036,0.023,0.004,0.004,0.001,0.001,0.036,0.004,0.000,0
20260703_211105,case01_boxes_2layer,6,62.2,1.000,28.118,420.827,-1.425,755.401,-10.806,0.000,0.191,38.906,-0.008,0.001,-0.117,0.006,-0.117,0.001,-0.075,0.007,-88.772,0.002,0.000,-0.572,0.000,-0.009,0.000,-0.001,-0.002,0.000,-0.947,-0.032,0.240,0.000,1,1,1,1,0.000,0.000,0.036,0.023,0.004,0.004,0.001,0.001,0.036,0.004,0.000,0
20260703_211105,case01_boxes_2layer,6,62.2,1.000,28.225,419.662,-1.425,755.421,-10.806,0.000,0.179,38.908,-0.008,0.001,-0.120,0.005,-0.120,0.001,-0.074,0.007,-88.831,0.008,0.000,-0.587,0.000,-0.010,0.000,-0.001,-0.002,0.000,-0.967,-0.033,0.240,0.000,1,1,1,1,0.000,0.000,0.036,0.023,0.004,0.005,0.001,0.001,0.036,0.005,0.000,0
20260703_211105,case01_boxes_2layer,6,62.2,1.000,28.330,418.532,-1.425,755.439,-10.807,0.000,0.168,38.910,-0.007,0.001,-0.108,0.005,-0.108,0.000,-0.073,0.007,-88.889,0.013,0.000,-0.582,0.000,-0.010,0.000,-0.001,-0.002,0.000,-0.968,-0.033,0.240,0.000,1,1,1,1,0.000,0.000,0.036,0.023,0.004,0.004,0.001,0.001,0.036,0.004,0.000,0
20260703_211105,case01_boxes_2layer,6,62.2,1.000,28.438,417.366,-1.425,755.457,-10.808,0.000,0.155,38.912,-0.007,0.001,-0.123,0.005,-0.123,0.000,-0.071,0.007,-88.950,0.018,0.000,-0.613,0.000,-0.010,0.000,-0.001,-0.002,0.000,-0.986,-0.033,0.240,0.000,1,1,1,1,0.000,0.000,0.036,0.023,0.004,0.004,0.001,0.001,0.036,0.004,0.000,0
20260703_211105,case01_boxes_2layer,6,62.2,1.000,28.550,416.157,-1.425,755.473,-10.808,0.000,0.143,38.914,-0.007,0.000,-0.126,0.004,-0.126,0.000,-0.069,0.007,-89.015,0.023,0.000,-0.648,0.000,-0.010,0.000,-0.001,-0.002,0.000,-1.004,-0.034,0.240,0.000,1,1,1,1,0.000,0.000,0.036,0.023,0.004,0.005,0.001,0.001,0.036,0.005,0.000,0
20260703_211105,case01_boxes_2layer,6,62.2,1.000,28.650,415.075,-1.425,755.487,-10.809,0.000,0.131,38.915,-0.006,0.000,-0.114,0.004,-0.114,0.000,-0.067,0.007,-89.074,0.023,0.000,-0.589,0.000,-0.010,0.000,0.000,-0.001,0.000,-1.001,-0.034,0.240,0.000,1,1,1,1,0.000,0.000,0.035,0.023,0.004,0.004,0.001,0.001,0.035,0.004,0.000,0
20260703_211105,case01_boxes_2layer,6,62.2,1.000,28.754,413.948,-1.425,755.500,-10.810,0.000,0.119,38.917,-0.006,0.000,-0.126,0.004,-0.126,0.000,-0.064,0.007,-89.136,0.026,0.000,-0.622,0.000,-0.010,0.000,0.000,-0.001,0.000,-1.015,-0.034,0.240,0.000,1,1,1,1,0.000,0.000,0.035,0.023,0.004,0.004,0.001,0.001,0.035,0.004,0.000,0
20260703_211105,case01_boxes_2layer,6,62.2,1.000,28.858,412.830,-1.425,755.512,-10.810,0.000,0.107,38.918,-0.005,0.000,-0.117,0.003,-0.118,0.000,-0.061,0.007,-89.199,0.027,0.000,-0.625,0.000,-0.011,0.000,0.000,-0.001,0.000,-1.014,-0.034,0.240,0.000,1,1,1,1,0.000,0.000,0.035,0.023,0.004,0.004,0.001,0.001,0.035,0.004,0.000,0
20260703_211105,case01_boxes_2layer,6,62.2,1.000,28.958,411.745,-1.425,755.522,-10.811,0.000,0.095,38.919,-0.005,0.000,-0.118,0.003,-0.118,0.000,-0.059,0.007,-89.260,0.026,0.000,-0.612,0.000,-0.011,0.000,0.000,-0.001,0.000,-1.013,-0.034,0.240,0.000,1,1,1,1,0.000,0.000,0.035,0.023,0.004,0.004,0.001,0.001,0.035,0.004,0.000,0
20260703_211105,case01_boxes_2layer,6,62.2,1.000,29.066,410.579,-1.425,755.531,-10.811,0.000,0.082,38.921,-0.005,0.000,-0.130,0.003,-0.131,0.000,-0.056,0.007,-89.326,0.028,0.000,-0.666,0.000,-0.011,0.000,0.000,-0.001,0.000,-1.026,-0.035,0.239,0.000,1,1,1,1,0.000,0.000,0.035,0.023,0.004,0.004,0.001,0.001,0.035,0.004,0.000,0
20260703_211105,case01_boxes_2layer,6,62.2,1.000,29.173,409.415,-1.425,755.540,-10.811,0.000,0.069,38.922,-0.004,0.000,-0.134,0.003,-0.134,0.000,-0.053,0.007,-89.394,0.026,0.000,-0.672,0.000,-0.011,0.000,0.000,-0.001,0.000,-1.042,-0.035,0.239,0.000,1,1,1,1,0.000,0.000,0.035,0.023,0.004,0.004,0.001,0.001,0.035,0.004,0.000,0
20260703_211105,case01_boxes_2layer,6,62.2,1.000,29.273,408.333,-1.425,755.546,-10.812,0.000,0.057,38.923,-0.004,0.000,-0.123,0.002,-0.123,0.000,-0.051,0.007,-89.457,0.023,0.000,-0.630,0.000,-0.011,0.000,0.000,-0.001,0.000,-1.041,-0.035,0.239,0.000,1,1,1,1,0.000,0.000,0.035,0.023,0.004,0.004,0.001,0.001,0.035,0.004,0.000,0
20260703_211105,case01_boxes_2layer,6,62.2,1.000,29.386,407.118,-1.425,755.551,-10.812,0.000,0.043,38.924,-0.003,0.000,-0.136,0.002,-0.136,0.000,-0.049,0.007,-89.528,0.023,0.000,-0.716,0.000,-0.011,0.000,0.000,-0.001,0.000,-1.057,-0.036,0.239,0.000,1,1,1,1,0.000,0.000,0.035,0.023,0.004,0.004,0.001,0.001,0.035,0.004,0.000,0
20260703_211105,case01_boxes_2layer,6,62.2,1.000,29.494,405.952,-1.425,755.555,-10.812,0.000,0.029,38.925,-0.003,0.000,-0.138,0.002,-0.138,0.000,-0.047,0.007,-89.598,0.019,0.000,-0.693,0.000,-0.011,0.000,0.000,-0.001,0.000,-1.076,-0.036,0.239,0.000,1,1,1,1,0.000,0.000,0.035,0.023,0.005,0.005,0.001,0.001,0.035,0.005,0.000,0
20260703_211105,case01_boxes_2layer,6,62.2,1.000,29.601,404.787,-1.425,755.558,-10.813,0.000,0.015,38.926,-0.003,0.000,-0.140,0.002,-0.140,0.000,-0.045,0.007,-89.668,0.016,0.000,-0.701,0.000,-0.011,0.000,0.001,-0.001,0.000,-1.095,-0.037,0.239,0.000,1,1,1,1,0.000,0.000,0.035,0.023,0.005,0.005,0.001,0.001,0.035,0.005,0.000,0
20260703_211105,case01_boxes_2layer,6,62.2,1.000,29.701,403.705,-1.425,755.559,-10.813,0.000,0.002,38.926,-0.002,0.000,-0.131,0.001,-0.131,0.000,-0.044,0.007,-89.734,0.013,0.000,-0.659,0.000,-0.012,0.000,0.000,-0.002,0.000,-1.096,-0.037,0.239,0.000,1,1,1,1,0.000,0.000,0.035,0.023,0.005,0.005,0.001,0.001,0.035,0.005,0.000,0
20260703_211105,case01_boxes_2layer,6,62.2,1.000,29.814,402.493,-1.425,755.558,-10.813,0.000,-0.012,38.927,-0.002,0.000,-0.142,0.001,-0.142,0.000,-0.043,0.007,-89.808,0.011,0.000,-0.745,0.000,-0.012,0.000,0.001,-0.001,0.000,-1.118,-0.038,0.239,0.000,1,1,1,1,0.000,0.000,0.035,0.023,0.005,0.005,0.001,0.001,0.035,0.005,0.000,0
20260703_211105,case01_boxes_2layer,6,62.2,1.000,29.918,401.367,-1.425,755.556,-10.813,0.000,-0.025,38.928,-0.001,0.000,-0.131,0.001,-0.131,0.000,-0.042,0.007,-89.878,0.007,0.000,-0.699,0.000,-0.012,0.000,0.000,-0.001,0.000,-1.120,-0.038,0.239,0.000,1,1,1,1,0.000,0.000,0.035,0.023,0.005,0.005,0.001,0.001,0.035,0.005,0.000,0
20260703_211105,case01_boxes_2layer,6,62.2,1.000,30.018,400.285,-1.425,755.553,-10.813,0.000,-0.039,38.928,-0.001,0.000,-0.133,0.001,-0.133,0.000,-0.042,0.007,-89.946,0.005,0.000,-0.680,0.000,-0.012,0.000,0.000,-0.001,0.000,-1.124,-0.038,0.239,0.000,1,1,1,1,0.000,0.000,0.035,0.023,0.005,0.005,0.001,0.001,0.035,0.005,0.000,0
20260703_211105,case01_boxes_2layer,6,62.2,1.000,30.122,399.158,-1.425,755.548,-10.813,0.000,-0.054,38.929,-0.001,0.000,-0.150,0.001,-0.150,0.000,-0.041,0.007,-90.018,0.003,0.000,-0.716,0.000,-0.012,0.000,0.000,-0.002,0.000,-1.150,-0.039,0.239,0.000,1,1,1,1,0.000,0.000,0.035,0.023,0.005,0.005,0.001,0.001,0.035,0.005,0.000,0
20260703_211105,case01_boxes_2layer,6,62.2,1.000,30.234,397.949,-1.425,755.541,-10.813,0.000,-0.069,38.929,0.000,0.000,-0.152,0.001,-0.152,0.000,-0.041,0.007,-90.096,0.002,0.000,-0.781,0.000,-0.012,0.000,0.000,-0.002,0.000,-1.176,-0.040,0.239,0.000,1,1,1,1,0.000,0.000,0.035,0.023,0.005,0.005,0.001,0.001,0.035,0.005,0.000,0
20260703_211105,case01_boxes_2layer,6,62.2,1.000,30.338,396.828,-1.425,755.533,-10.813,0.000,-0.083,38.929,0.000,0.000,-0.137,0.000,-0.137,0.000,-0.041,0.007,-90.169,0.000,0.000,-0.732,0.000,-0.012,0.000,0.000,-0.001,0.000,-1.182,-0.040,0.239,0.000,1,1,1,1,0.000,0.000,0.035,0.023,0.005,0.005,0.001,0.001,0.035,0.005,0.000,0
20260703_211105,case01_boxes_2layer,6,62.2,1.000,30.442,395.700,-1.425,755.524,-10.813,0.000,-0.098,38.930,0.001,0.000,-0.156,0.000,-0.156,0.000,-0.041,0.007,-90.243,-0.001,0.000,-0.745,0.000,-0.013,0.000,0.000,-0.002,0.000,-1.211,-0.041,0.239,0.000,1,1,1,1,0.000,0.000,0.035,0.023,0.005,0.005,0.001,0.001,0.035,0.005,0.000,0
20260703_211105,case01_boxes_2layer,6,62.2,1.000,30.550,394.534,-1.425,755.512,-10.813,0.000,-0.113,38.930,0.001,0.000,-0.143,0.000,-0.143,0.000,-0.041,0.007,-90.322,-0.002,0.000,-0.782,0.000,-0.013,0.000,0.000,-0.002,0.000,-1.218,-0.041,0.238,0.000,1,1,1,1,0.000,0.000,0.035,0.023,0.005,0.005,0.001,0.001,0.035,0.005,0.000,0
20260703_211105,case01_boxes_2layer,6,62.2,1.000,30.662,393.320,-1.425,755.499,-10.813,0.000,-0.130,38.930,0.001,0.000,-0.172,0.000,-0.172,0.000,-0.042,0.007,-90.404,-0.002,0.000,-0.826,0.000,-0.013,0.000,0.000,-0.002,0.000,-1.173,-0.039,0.238,0.000,1,1,1,1,0.000,0.000,0.035,0.023,0.004,0.004,0.001,0.001,0.035,0.004,0.000,0
20260703_211105,case01_boxes_2layer,6,62.2,1.000,30.762,392.238,-1.425,755.485,-10.813,0.000,-0.145,38.930,0.002,0.000,-0.151,-0.001,-0.151,0.000,-0.042,0.007,-90.479,-0.001,0.000,-0.746,0.000,-0.013,0.000,0.000,-0.002,0.000,-1.283,-0.040,0.238,0.000,1,1,1,1,0.000,0.000,0.035,0.023,0.006,0.006,0.001,0.001,0.035,0.006,0.000,0
20260703_211105,case01_boxes_2layer,6,62.2,1.000,30.870,391.073,-1.425,755.469,-10.813,0.000,-0.160,38.930,0.002,0.000,-0.150,-0.001,-0.150,0.000,-0.042,0.007,-90.561,0.000,0.000,-0.818,0.000,-0.013,0.000,0.000,-0.002,0.000,-1.293,-0.040,0.238,0.000,1,1,1,1,0.000,0.000,0.035,0.023,0.006,0.006,0.001,0.001,0.035,0.006,0.000,0
20260703_211105,case01_boxes_2layer,6,62.2,1.000,30.982,389.859,-1.425,755.450,-10.812,0.000,-0.178,38.930,0.003,0.000,-0.179,-0.001,-0.179,0.000,-0.042,0.007,-90.647,0.001,0.000,-0.864,0.000,-0.014,0.000,0.000,-0.002,0.000,-1.246,-0.042,0.238,0.000,1,1,1,1,0.000,0.000,0.035,0.023,0.005,0.005,0.001,0.001,0.035,0.005,0.000,0
20260703_211105,case01_boxes_2layer,6,62.2,1.000,31.082,388.778,-1.425,755.431,-10.812,0.000,-0.193,38.930,0.003,0.000,-0.152,-0.001,-0.152,0.000,-0.042,0.007,-90.725,0.002,0.000,-0.780,0.000,-0.014,0.000,0.000,-0.002,0.000,-1.257,-0.042,0.238,0.000,1,1,1,1,0.000,0.000,0.035,0.023,0.005,0.005,0.001,0.001,0.035,0.005,0.000,0
20260703_211105,case01_boxes_2layer,6,62.2,1.000,31.190,387.612,-1.425,755.410,-10.812,0.000,-0.208,38.930,0.003,0.000,-0.154,-0.001,-0.154,0.000,-0.041,0.007,-90.810,0.003,0.000,-0.851,0.000,-0.014,0.000,0.000,-0.002,0.000,-1.271,-0.043,0.238,0.000,1,1,1,1,0.000,0.000,0.035,0.023,0.005,0.005,0.001,0.001,0.035,0.005,0.000,0
20260703_211105,case01_boxes_2layer,6,62.2,1.000,31.297,386.448,-1.425,755.386,-10.811,0.000,-0.226,38.930,0.004,0.000,-0.172,-0.001,-0.172,0.000,-0.041,0.007,-90.896,0.004,0.000,-0.861,0.000,-0.014,0.000,0.000,-0.002,0.000,-1.309,-0.044,0.238,0.000,1,1,1,1,0.000,0.000,0.035,0.023,0.005,0.005,0.001,0.001,0.035,0.005,0.000,0
20260703_211105,case01_boxes_2layer,6,62.2,1.000,31.405,385.281,-1.425,755.361,-10.811,0.000,-0.244,38.929,0.005,0.000,-0.181,-0.002,-0.181,0.000,-0.040,0.007,-90.984,0.006,0.000,-0.879,0.000,-0.014,0.000,0.000,-0.003,0.000,-1.349,-0.045,0.238,0.000,1,1,1,1,0.000,0.000,0.035,0.023,0.006,0.006,0.001,0.001,0.035,0.006,0.000,0
20260703_211105,case01_boxes_2layer,6,62.2,1.000,31.510,384.152,-1.425,755.334,-10.810,0.000,-0.260,38.929,0.005,0.000,-0.165,-0.002,-0.165,0.000,-0.039,0.007,-91.071,0.008,0.000,-0.867,0.000,-0.015,0.000,0.000,-0.002,0.000,-1.362,-0.046,0.238,0.000,1,1,1,1,0.000,0.000,0.035,0.023,0.006,0.006,0.001,0.001,0.035,0.006,0.000,0
20260703_211105,case01_boxes_2layer,6,62.2,1.000,31.618,382.987,-1.425,755.305,-10.810,0.000,-0.278,38.928,0.006,0.000,-0.183,-0.002,-0.183,0.000,-0.038,0.007,-91.162,0.010,0.000,-0.909,0.000,-0.015,0.000,0.000,-0.003,0.000,-1.401,-0.047,0.238,0.000,1,1,1,1,0.000,0.000,0.035,0.023,0.006,0.006,0.001,0.001,0.035,0.006,0.000,0
20260703_211105,case01_boxes_2layer,6,62.2,1.000,31.725,381.822,-1.425,755.274,-10.809,0.000,-0.297,38.928,0.006,0.000,-0.186,-0.002,-0.187,0.000,-0.037,0.007,-91.254,0.012,0.000,-0.923,0.000,-0.015,0.000,0.000,-0.003,0.000,-1.443,-0.045,0.238,0.000,1,1,1,1,0.000,0.000,0.035,0.023,0.006,0.006,0.001,0.001,0.035,0.006,0.000,0
20260703_211105,case01_boxes_2layer,6,62.2,1.000,31.838,380.607,-1.425,755.240,-10.809,0.000,-0.316,38.927,0.007,0.000,-0.186,-0.002,-0.186,0.000,-0.036,0.007,-91.352,0.014,0.000,-0.977,0.000,-0.015,0.000,0.000,-0.002,0.000,-1.375,-0.046,0.238,0.000,1,1,1,1,0.000,0.000,0.035,0.023,0.005,0.005,0.001,0.001,0.035,0.005,0.000,0
20260703_211105,case01_boxes_2layer,6,62.2,1.000,31.950,379.397,-1.425,755.203,-10.808,0.000,-0.335,38.927,0.007,0.000,-0.190,-0.003,-0.191,0.000,-0.034,0.007,-91.451,0.015,0.000,-0.989,0.000,-0.016,0.000,0.000,-0.002,0.000,-1.416,-0.048,0.238,0.000,1,1,1,1,0.000,0.000,0.035,0.023,0.005,0.005,0.001,0.001,0.035,0.005,0.000,0
20260703_211105,case01_boxes_2layer,6,62.2,1.000,32.058,378.229,-1.425,755.166,-10.807,0.000,-0.354,38.926,0.008,0.000,-0.189,-0.003,-0.189,0.000,-0.033,0.007,-91.547,0.015,0.000,-0.966,0.000,-0.016,0.000,0.000,-0.001,0.000,-1.463,-0.049,0.238,0.000,1,1,1,1,0.000,0.000,0.035,0.023,0.006,0.006,0.002,0.002,0.035,0.006,0.000,0
20260703_211105,case01_boxes_2layer,6,62.2,1.000,32.182,376.886,-1.424,755.121,-10.806,0.000,-0.377,38.925,0.010,0.000,-0.230,-0.003,-0.230,0.000,-0.031,0.007,-91.660,0.018,0.000,-1.123,0.000,-0.016,0.000,0.000,-0.002,0.000,-1.451,-0.049,0.238,0.000,1,1,1,1,0.000,0.000,0.035,0.023,0.006,0.006,0.002,0.002,0.035,0.006,0.000,0
20260703_211105,case01_boxes_2layer,6,62.2,1.000,32.286,375.765,-1.424,755.081,-10.805,0.000,-0.395,38.925,0.009,0.000,-0.183,-0.003,-0.183,0.000,-0.029,0.007,-91.755,0.016,0.000,-0.954,0.000,-0.016,0.000,0.000,-0.003,0.000,-1.477,-0.050,0.238,0.000,1,1,1,1,0.000,0.000,0.035,0.023,0.006,0.006,0.002,0.002,0.035,0.006,0.000,0
20260703_211105,case01_boxes_2layer,6,62.2,1.000,32.394,374.602,-1.424,755.037,-10.804,0.000,-0.415,38.924,0.009,0.000,-0.197,-0.003,-0.197,0.000,-0.028,0.007,-91.856,0.017,0.000,-1.007,0.000,-0.016,0.000,0.000,-0.001,0.000,-1.429,-0.048,0.238,0.000,1,1,1,1,0.000,0.000,0.035,0.023,0.005,0.005,0.002,0.002,0.035,0.005,0.000,0
20260703_211105,case01_boxes_2layer,6,62.2,1.000,32.494,373.521,-1.424,754.995,-10.803,0.000,-0.431,38.923,0.008,0.000,-0.167,-0.002,-0.167,0.000,-0.026,0.007,-91.949,0.013,0.000,-0.931,0.000,-0.016,0.000,0.000,0.001,0.000,-1.462,-0.049,0.238,0.000,1,1,1,1,0.000,0.000,0.035,0.023,0.005,0.006,0.002,0.002,0.035,0.006,0.000,0
20260703_211105,case01_boxes_2layer,6,62.2,1.000,32.606,372.310,-1.424,754.945,-10.802,0.000,-0.451,38.923,0.010,0.000,-0.196,-0.003,-0.197,0.000,-0.025,0.007,-92.053,0.012,0.000,-1.040,0.000,-0.016,0.000,0.000,-0.001,0.000,-1.534,-0.048,0.237,0.000,1,1,1,1,0.000,0.000,0.035,0.023,0.007,0.007,0.002,0.002,0.035,0.007,0.000,0
20260703_211105,case01_boxes_2layer,6,62.2,1.000,32.713,371.145,-1.424,754.896,-10.801,0.000,-0.472,38.922,0.012,0.000,-0.209,-0.004,-0.209,0.000,-0.024,0.007,-92.154,0.011,0.000,-1.013,0.000,-0.017,0.000,0.000,-0.003,0.000,-1.508,-0.051,0.237,0.000,1,1,1,1,0.000,0.000,0.035,0.023,0.006,0.006,0.002,0.002,0.035,0.006,0.000,0
20260703_211105,case01_boxes_2layer,6,62.2,1.000,32.822,369.977,-1.424,754.843,-10.800,0.000,-0.494,38.921,0.013,0.000,-0.221,-0.004,-0.221,0.000,-0.023,0.007,-92.258,0.013,0.000,-1.042,0.000,-0.017,0.000,0.000,-0.005,0.000,-1.584,-0.053,0.237,0.000,1,1,1,1,0.000,0.000,0.035,0.023,0.006,0.007,0.002,0.002,0.035,0.007,0.000,0
20260703_211105,case01_boxes_2layer,6,62.2,1.000,32.922,368.897,-1.424,754.793,-10.799,0.000,-0.514,38.919,0.012,0.000,-0.203,-0.004,-0.203,0.000,-0.021,0.007,-92.357,0.013,0.000,-0.989,0.000,-0.017,0.000,0.000,-0.004,0.000,-1.635,-0.055,0.237,0.000,1,1,1,1,0.000,0.000,0.035,0.023,0.007,0.007,0.002,0.002,0.035,0.007,0.000,0
20260703_211105,case01_boxes_2layer,6,62.2,1.000,33.026,367.771,-1.424,754.738,-10.797,0.000,-0.535,38.918,0.014,0.000,-0.211,-0.004,-0.211,0.000,-0.020,0.007,-92.463,0.015,0.000,-1.060,0.000,-0.018,0.000,0.000,-0.005,0.000,-1.687,-0.057,0.237,0.000,1,1,1,1,0.000,0.000,0.035,0.023,0.007,0.007,0.002,0.002,0.035,0.007,0.000,0
20260703_211105,case01_boxes_2layer,6,62.2,1.000,33.134,366.606,-1.424,754.679,-10.796,0.000,-0.559,38.917,0.016,0.000,-0.238,-0.005,-0.239,0.000,-0.018,0.007,-92.576,0.018,0.000,-1.130,0.000,-0.019,0.000,0.000,-0.006,0.000,-1.771,-0.056,0.237,0.000,1,1,1,1,0.000,0.000,0.035,0.023,0.008,0.008,0.002,0.002,0.035,0.008,0.000,0
20260703_211105,case01_boxes_2layer,6,62.2,1.000,33.242,365.442,-1.424,754.618,-10.794,0.000,-0.583,38.915,0.017,0.000,-0.240,-0.005,-0.241,0.000,-0.016,0.007,-92.692,0.020,0.000,-1.159,0.000,-0.019,0.000,0.000,-0.005,0.000,-1.725,-0.058,0.237,0.000,1,1,1,1,0.000,0.000,0.035,0.023,0.006,0.007,0.002,0.002,0.035,0.007,0.000,0
20260703_211105,case01_boxes_2layer,6,62.2,1.000,33.342,364.362,-1.424,754.558,-10.793,0.000,-0.605,38.914,0.016,0.000,-0.220,-0.005,-0.221,0.000,-0.014,0.007,-92.803,0.020,0.000,-1.105,0.000,-0.019,0.000,0.000,-0.004,0.000,-1.772,-0.060,0.237,0.000,1,1,1,1,0.000,0.000,0.035,0.023,0.007,0.007,0.002,0.002,0.035,0.007,0.000,0
20260703_211105,case01_boxes_2layer,6,62.2,1.000,33.442,363.282,-1.424,754.497,-10.791,0.000,-0.628,38.913,0.017,0.000,-0.229,-0.005,-0.229,0.000,-0.012,0.007,-92.916,0.021,0.000,-1.128,0.000,-0.020,0.000,0.000,-0.005,0.000,-1.817,-0.061,0.237,0.000,1,1,1,1,0.000,0.000,0.035,0.023,0.007,0.007,0.002,0.002,0.035,0.007,0.000,0
20260703_211105,case01_boxes_2layer,6,62.2,1.000,33.542,362.203,-1.424,754.433,-10.789,0.000,-0.651,38.911,0.017,0.000,-0.229,-0.005,-0.229,0.000,-0.010,0.007,-93.031,0.022,0.000,-1.153,0.000,-0.020,0.000,0.000,-0.004,0.000,-1.862,-0.063,0.237,0.000,1,1,1,1,0.000,0.000,0.035,0.023,0.007,0.008,0.002,0.002,0.035,0.008,0.000,0
20260703_211105,case01_boxes_2layer,6,62.2,1.000,33.642,361.124,-1.424,754.367,-10.787,0.000,-0.674,38.910,0.018,0.000,-0.233,-0.006,-0.234,0.000,-0.008,0.007,-93.148,0.023,0.000,-1.176,0.000,-0.021,0.000,0.000,-0.004,0.000,-1.910,-0.064,0.237,0.000,1,1,1,1,0.000,0.000,0.035,0.023,0.008,0.008,0.002,0.002,0.035,0.008,0.000,0
20260703_211105,case01_boxes_2layer,6,62.2,1.000,33.750,359.961,-1.424,754.293,-10.785,0.000,-0.698,38.908,0.019,0.000,-0.239,-0.006,-0.240,0.000,-0.005,0.007,-93.277,0.025,0.000,-1.290,0.000,-0.021,0.000,0.000,-0.004,0.000,-1.958,-0.061,0.237,0.000,1,1,1,1,0.000,0.000,0.035,0.023,0.008,0.008,0.002,0.002,0.035,0.008,0.000,0
20260703_211105,case01_boxes_2layer,6,62.2,1.000,33.850,358.882,-1.424,754.221,-10.783,0.000,-0.722,38.907,0.020,0.000,-0.241,-0.006,-0.242,0.000,-0.003,0.007,-93.399,0.023,0.000,-1.218,0.000,-0.021,0.000,0.000,-0.004,0.000,-2.012,-0.063,0.237,0.000,1,1,1,1,0.000,0.000,0.035,0.023,0.009,0.009,0.002,0.002,0.035,0.009,0.000,0
20260703_211105,case01_boxes_2layer,6,62.2,1.000,33.950,357.804,-1.424,754.148,-10.781,0.000,-0.746,38.905,0.021,0.000,-0.242,-0.006,-0.243,0.000,-0.001,0.007,-93.523,0.023,0.000,-1.239,0.000,-0.022,0.000,0.000,-0.003,0.000,-1.921,-0.065,0.237,0.000,1,1,1,1,0.000,0.000,0.035,0.023,0.007,0.007,0.002,0.002,0.035,0.007,0.000,0
20260703_211105,case01_boxes_2layer,6,62.2,1.000,34.058,356.642,-1.424,754.066,-10.779,0.000,-0.773,38.904,0.024,0.000,-0.270,-0.007,-0.271,0.000,0.002,0.007,-93.659,0.024,0.000,-1.355,0.000,-0.022,0.000,0.000,-0.003,0.000,-2.004,-0.067,0.237,0.000,1,1,1,1,0.000,0.000,0.035,0.023,0.008,0.008,0.002,0.002,0.035,0.008,0.000,0
20260703_211105,case01_boxes_2layer,6,62.2,1.000,34.162,355.515,-1.424,753.983,-10.776,0.000,-0.802,38.902,0.026,0.000,-0.281,-0.007,-0.282,0.000,0.004,0.007,-93.792,0.023,0.000,-1.337,0.000,-0.023,0.000,0.000,-0.005,0.000,-2.098,-0.066,0.237,0.000,1,1,1,1,0.000,0.000,0.035,0.023,0.009,0.009,0.002,0.002,0.035,0.009,0.000,0
20260703_211105,case01_boxes_2layer,6,62.2,1.000,34.270,354.356,-1.424,753.896,-10.774,0.000,-0.827,38.900,0.024,0.000,-0.254,-0.007,-0.255,0.000,0.006,0.007,-93.932,0.023,0.000,-1.399,0.000,-0.023,0.000,0.000,-0.003,0.000,-2.014,-0.068,0.237,0.000,1,1,1,1,0.000,0.000,0.035,0.023,0.007,0.007,0.003,0.002,0.035,0.007,0.000,0
20260703_211105,case01_boxes_2layer,6,62.2,1.000,34.370,353.277,-1.424,753.811,-10.771,0.000,-0.853,38.898,0.026,0.000,-0.263,-0.007,-0.264,0.000,0.008,0.007,-94.065,0.021,0.000,-1.326,0.000,-0.023,0.000,0.000,-0.004,0.000,-2.073,-0.070,0.237,0.000,1,1,1,1,0.000,0.000,0.035,0.023,0.008,0.008,0.003,0.003,0.035,0.008,0.000,0
20260703_211105,case01_boxes_2layer,6,62.2,1.000,34.470,352.200,-1.424,753.725,-10.769,0.000,-0.880,38.896,0.027,0.000,-0.267,-0.007,-0.268,0.000,0.011,0.007,-94.199,0.021,0.000,-1.347,0.000,-0.024,0.000,0.000,-0.004,0.000,-2.138,-0.072,0.237,0.000,1,1,1,1,0.000,0.000,0.035,0.023,0.008,0.008,0.003,0.003,0.035,0.008,0.000,0
20260703_211105,case01_boxes_2layer,6,62.2,1.000,34.578,351.038,-1.424,753.628,-10.765,0.000,-0.910,38.894,0.031,0.000,-0.302,-0.008,-0.303,0.000,0.013,0.007,-94.347,0.022,0.000,-1.479,0.000,-0.024,0.000,0.000,-0.005,0.000,-2.243,-0.070,0.237,0.000,1,1,1,1,0.000,0.000,0.035,0.023,0.009,0.010,0.003,0.003,0.035,0.010,0.000,0
20260703_211105,case01_boxes_2layer,6,62.2,1.000,34.678,349.961,-1.424,753.535,-10.763,0.000,-0.938,38.892,0.029,0.000,-0.275,-0.008,-0.276,0.000,0.015,0.007,-94.487,0.020,0.000,-1.396,0.000,-0.025,0.000,0.000,-0.004,0.000,-2.164,-0.073,0.237,0.000,1,1,1,1,0.000,0.000,0.035,0.023,0.008,0.008,0.003,0.003,0.035,0.008,0.000,0
20260703_211105,case01_boxes_2layer,6,62.2,1.000,34.778,348.884,-1.424,753.440,-10.759,0.000,-0.966,38.890,0.031,0.000,-0.282,-0.008,-0.283,0.000,0.017,0.007,-94.629,0.020,0.000,-1.421,0.000,-0.025,0.000,0.000,-0.004,0.000,-2.237,-0.075,0.237,0.000,1,1,1,1,0.000,0.000,0.035,0.023,0.008,0.009,0.003,0.003,0.035,0.009,0.000,0
20260703_211105,case01_boxes_2layer,6,62.2,1.000,34.878,347.807,-1.424,753.342,-10.756,0.000,-0.995,38.888,0.032,0.000,-0.289,-0.008,-0.290,0.000,0.019,0.007,-94.774,0.020,0.000,-1.447,0.000,-0.025,0.000,0.000,-0.005,0.000,-2.313,-0.078,0.237,0.000,1,1,1,1,0.000,0.000,0.035,0.023,0.009,0.009,0.003,0.003,0.035,0.009,0.000,0
20260703_211105,case01_boxes_2layer,6,62.2,1.000,34.986,346.649,-1.424,753.233,-10.753,0.000,-1.026,38.885,0.036,0.000,-0.315,-0.009,-0.317,0.000,0.021,0.007,-94.933,0.022,0.000,-1.587,0.000,-0.026,0.000,0.000,-0.004,0.000,-2.151,-0.072,0.237,0.000,1,1,1,1,0.000,0.000,0.035,0.023,0.006,0.006,0.003,0.003,0.035,0.006,0.000,0
20260703_211105,case01_boxes_2layer,6,62.2,1.000,35.094,345.489,-1.424,753.121,-10.749,0.000,-1.055,38.883,0.034,0.000,-0.289,-0.008,-0.291,0.000,0.023,0.007,-95.091,0.018,0.000,-1.590,0.000,-0.026,0.000,0.001,0.002,0.000,-2.269,-0.076,0.237,0.000,1,1,1,1,0.000,0.000,0.035,0.023,0.008,0.008,0.003,0.003,0.035,0.008,0.000,0
20260703_211105,case01_boxes_2layer,6,62.2,1.000,35.194,344.414,-1.424,753.014,-10.746,0.000,-1.084,38.881,0.035,0.000,-0.287,-0.008,-0.289,0.000,0.024,0.007,-95.239,0.013,0.000,-1.476,0.000,-0.026,0.000,0.000,-0.002,0.000,-2.377,-0.075,0.237,0.000,1,1,1,1,0.000,0.000,0.035,0.023,0.010,0.010,0.003,0.003,0.035,0.010,0.000,0
20260703_211105,case01_boxes_2layer,6,62.2,1.000,35.294,343.340,-1.424,752.904,-10.742,0.000,-1.114,38.879,0.038,0.000,-0.303,-0.009,-0.305,0.000,0.026,0.007,-95.389,0.013,0.000,-1.497,0.000,-0.026,0.000,0.000,-0.005,0.000,-2.353,-0.079,0.237,0.000,1,1,1,1,0.000,0.000,0.035,0.023,0.009,0.009,0.003,0.003,0.035,0.009,0.000,0
20260703_211105,case01_boxes_2layer,6,62.2,1.000,35.394,342.264,-1.424,752.791,-10.738,0.000,-1.145,38.876,0.040,0.000,-0.314,-0.010,-0.316,0.000,0.027,0.007,-95.542,0.015,0.000,-1.535,0.000,-0.027,0.000,0.000,-0.007,0.000,-2.469,-0.083,0.237,0.000,1,1,1,1,0.000,0.000,0.035,0.023,0.010,0.010,0.003,0.003,0.035,0.010,0.000,0
20260703_211105,case01_boxes_2layer,6,62.2,1.000,35.494,341.190,-1.424,752.675,-10.734,0.000,-1.179,38.873,0.044,0.000,-0.331,-0.011,-0.334,0.000,0.029,0.007,-95.700,0.018,0.000,-1.577,0.000,-0.028,0.000,-0.001,-0.009,0.000,-2.600,-0.082,0.236,0.000,1,1,1,1,0.000,0.000,0.035,0.023,0.011,0.011,0.003,0.003,0.035,0.011,0.000,0
20260703_211105,case01_boxes_2layer,6,62.2,1.000,35.594,340.116,-1.424,752.555,-10.729,0.000,-1.212,38.870,0.045,0.000,-0.332,-0.011,-0.335,0.001,0.031,0.007,-95.862,0.021,0.000,-1.624,0.000,-0.029,0.000,-0.001,-0.008,0.000,-2.574,-0.087,0.236,0.000,1,1,1,1,0.000,0.000,0.035,0.023,0.010,0.010,0.003,0.003,0.035,0.010,0.000,0
20260703_211105,case01_boxes_2layer,6,62.2,1.000,35.702,338.960,-1.424,752.422,-10.724,0.000,-1.250,38.867,0.053,0.001,-0.380,-0.013,-0.383,0.001,0.034,0.007,-96.043,0.027,-0.001,-1.803,0.000,-0.030,0.000,-0.001,-0.010,0.000,-2.747,-0.092,0.237,0.000,1,1,1,1,0.000,0.000,0.035,0.023,0.011,0.012,0.003,0.003,0.035,0.012,0.000,0
20260703_211105,case01_boxes_2layer,6,62.2,1.000,35.810,337.799,-1.424,752.285,-10.719,0.000,-1.285,38.863,0.052,0.001,-0.357,-0.013,-0.360,0.001,0.037,0.007,-96.230,0.032,-0.001,-1.874,-0.001,-0.031,0.000,-0.001,-0.009,0.000,-2.716,-0.091,0.236,0.000,1,1,1,1,0.000,0.000,0.035,0.023,0.010,0.010,0.003,0.003,0.035,0.010,0.000,0
20260703_211105,case01_boxes_2layer,6,62.2,1.000,35.918,336.644,-1.424,752.144,-10.713,0.000,-1.326,38.860,0.059,0.001,-0.401,-0.014,-0.405,0.001,0.040,0.007,-96.423,0.036,-0.001,-1.926,-0.001,-0.032,0.000,-0.001,-0.010,0.000,-2.894,-0.097,0.236,0.000,1,1,1,1,0.000,0.000,0.035,0.023,0.011,0.012,0.004,0.004,0.035,0.012,0.000,0
20260703_211105,case01_boxes_2layer,6,62.2,1.000,36.018,335.573,-1.424,752.010,-10.707,0.000,-1.363,38.856,0.056,0.001,-0.371,-0.013,-0.375,0.001,0.044,0.007,-96.607,0.038,0.000,-1.841,-0.001,-0.033,0.000,-0.001,-0.009,0.000,-2.855,-0.096,0.236,0.000,1,1,1,1,0.000,0.000,0.035,0.023,0.010,0.010,0.004,0.004,0.035,0.010,0.000,0
20260703_211105,case01_boxes_2layer,6,62.2,1.000,36.126,334.415,-1.424,751.860,-10.701,0.001,-1.404,38.852,0.064,0.001,-0.414,-0.015,-0.418,0.001,0.049,0.006,-96.811,0.044,0.000,-2.042,-0.001,-0.033,0.000,0.000,-0.009,0.000,-3.042,-0.102,0.236,0.000,1,1,1,1,0.000,0.000,0.035,0.023,0.012,0.013,0.004,0.004,0.035,0.013,0.000,0
20260703_211105,case01_boxes_2layer,6,62.2,1.000,36.234,333.260,-1.424,751.706,-10.694,0.001,-1.447,38.848,0.069,0.000,-0.431,-0.016,-0.436,0.001,0.053,0.006,-97.021,0.048,0.000,-2.095,-0.001,-0.034,0.000,-0.001,-0.010,0.000,-3.053,-0.103,0.236,0.000,1,1,1,1,0.000,0.000,0.035,0.023,0.011,0.012,0.004,0.004,0.035,0.012,0.000,0
20260703_211105,case01_boxes_2layer,6,62.2,1.000,36.342,332.105,-1.423,751.547,-10.686,0.001,-1.491,38.844,0.072,0.000,-0.436,-0.016,-0.442,0.001,0.059,0.006,-97.236,0.051,0.000,-2.152,-0.001,-0.035,0.000,0.000,-0.009,0.000,-3.068,-0.103,0.236,0.000,1,1,1,1,0.000,0.000,0.035,0.023,0.010,0.011,0.004,0.004,0.035,0.011,0.000,0
20260703_211105,case01_boxes_2layer,6,62.2,1.000,36.450,330.953,-1.423,751.384,-10.680,0.001,-1.531,38.840,0.068,0.000,-0.402,-0.015,-0.408,0.001,0.064,0.006,-97.456,0.052,0.000,-2.200,-0.001,-0.036,0.000,0.000,-0.007,0.000,-3.219,-0.108,0.236,0.000,1,1,1,1,0.000,0.000,0.035,0.023,0.012,0.013,0.004,0.004,0.035,0.013,0.000,0
20260703_211105,case01_boxes_2layer,6,62.2,1.000,36.550,329.885,-1.423,751.229,-10.672,0.001,-1.574,38.835,0.075,0.000,-0.428,-0.017,-0.434,0.001,0.069,0.006,-97.665,0.051,0.000,-2.095,-0.001,-0.037,0.000,-0.001,-0.011,0.000,-3.384,-0.107,0.236,0.000,1,1,1,1,0.000,0.000,0.035,0.023,0.014,0.014,0.004,0.004,0.035,0.014,0.000,0
20260703_211105,case01_boxes_2layer,6,62.2,1.000,36.658,328.733,-1.423,751.056,-10.664,0.001,-1.619,38.831,0.080,0.000,-0.451,-0.017,-0.458,0.001,0.075,0.006,-97.897,0.057,0.000,-2.315,-0.001,-0.038,0.000,0.000,-0.006,0.000,-3.219,-0.108,0.236,0.000,1,1,1,1,0.000,0.000,0.034,0.023,0.010,0.011,0.004,0.004,0.034,0.011,0.000,0
20260703_211105,case01_boxes_2layer,6,62.2,1.000,36.766,327.583,-1.423,750.879,-10.656,0.001,-1.662,38.827,0.078,0.000,-0.435,-0.016,-0.441,0.000,0.080,0.007,-98.130,0.051,0.000,-2.327,-0.001,-0.038,0.000,0.001,-0.001,0.000,-3.272,-0.110,0.236,0.000,1,1,1,1,0.000,0.000,0.034,0.023,0.011,0.012,0.005,0.005,0.034,0.012,0.000,0
20260703_211105,case01_boxes_2layer,6,62.2,1.000,36.874,326.429,-1.423,750.697,-10.648,0.001,-1.710,38.822,0.088,-0.001,-0.473,-0.018,-0.481,0.000,0.084,0.007,-98.366,0.048,0.000,-2.361,-0.001,-0.038,0.000,0.000,-0.007,0.000,-3.349,-0.113,0.236,0.000,1,1,1,1,0.000,0.000,0.034,0.023,0.011,0.012,0.005,0.005,0.034,0.012,0.000,0
20260703_211105,case01_boxes_2layer,6,62.2,1.000,36.982,325.279,-1.423,750.509,-10.638,0.001,-1.760,38.817,0.097,0.000,-0.503,-0.021,-0.512,0.000,0.089,0.007,-98.607,0.048,0.000,-2.412,-0.001,-0.040,0.000,0.000,-0.012,0.000,-3.622,-0.116,0.236,0.000,1,1,1,1,0.000,0.000,0.034,0.023,0.015,0.015,0.005,0.005,0.034,0.015,0.000,0
20260703_211105,case01_boxes_2layer,6,62.2,1.000,37.101,324.009,-1.423,750.296,-10.627,0.000,-1.817,38.810,0.113,0.000,-0.567,-0.024,-0.577,0.001,0.095,0.007,-98.882,0.056,0.000,-2.755,-0.001,-0.041,0.000,0.000,-0.014,0.000,-3.590,-0.121,0.236,0.000,1,1,1,1,0.000,0.000,0.034,0.023,0.012,0.013,0.005,0.005,0.034,0.013,0.000,0
20260703_211105,case01_boxes_2layer,6,62.2,1.000,37.206,322.901,-1.423,750.104,-10.617,0.001,-1.865,38.805,0.100,0.000,-0.486,-0.021,-0.495,0.001,0.100,0.006,-99.131,0.051,-0.001,-2.485,-0.001,-0.042,0.000,0.000,-0.012,0.000,-3.821,-0.129,0.236,0.000,1,1,1,1,0.000,0.000,0.034,0.023,0.015,0.016,0.005,0.005,0.034,0.016,0.000,0
20260703_211105,case01_boxes_2layer,6,62.2,1.000,37.309,321.801,-1.423,749.908,-10.606,0.001,-1.916,38.799,0.108,0.000,-0.508,-0.023,-0.519,0.001,0.105,0.006,-99.386,0.054,-0.001,-2.554,-0.001,-0.044,0.000,-0.001,-0.014,0.000,-3.866,-0.130,0.236,0.000,1,1,1,1,0.000,0.000,0.034,0.023,0.014,0.015,0.005,0.005,0.034,0.015,0.000,0
20260703_211105,case01_boxes_2layer,6,62.2,1.000,37.410,320.738,-1.423,749.713,-10.594,0.001,-1.969,38.792,0.115,0.001,-0.528,-0.025,-0.540,0.002,0.111,0.006,-99.642,0.057,-0.001,-2.559,-0.001,-0.045,0.000,-0.001,-0.016,0.000,-4.117,-0.131,0.236,0.000,1,1,1,1,0.000,0.000,0.034,0.023,0.016,0.017,0.005,0.005,0.034,0.017,0.000,0
20260703_211105,case01_boxes_2layer,6,62.2,1.000,37.518,319.594,-1.423,749.497,-10.581,0.001,-2.027,38.785,0.131,0.001,-0.585,-0.028,-0.599,0.002,0.117,0.006,-99.927,0.065,-0.001,-2.850,-0.001,-0.047,0.000,-0.001,-0.015,0.000,-4.230,-0.142,0.236,0.000,1,1,1,1,0.000,0.000,0.034,0.023,0.016,0.017,0.006,0.005,0.034,0.017,0.000,0
20260703_211105,case01_boxes_2layer,6,62.2,1.000,37.621,318.498,-1.423,749.283,-10.567,0.001,-2.088,38.777,0.140,0.001,-0.609,-0.030,-0.624,0.002,0.124,0.006,-100.210,0.067,-0.001,-2.833,-0.001,-0.048,0.000,-0.001,-0.017,0.000,-4.348,-0.146,0.236,0.000,1,1,1,1,0.000,0.000,0.034,0.023,0.016,0.017,0.006,0.006,0.034,0.017,0.000,0
20260703_211105,case01_boxes_2layer,6,62.2,1.000,37.730,317.352,-1.423,749.053,-10.554,0.001,-2.145,38.770,0.136,0.001,-0.572,-0.029,-0.587,0.002,0.132,0.006,-100.517,0.074,-0.001,-3.062,-0.001,-0.050,0.000,-0.001,-0.016,0.000,-4.399,-0.148,0.236,0.000,1,1,1,1,0.000,0.000,0.034,0.023,0.015,0.016,0.006,0.006,0.034,0.016,0.000,0
20260703_211105,case01_boxes_2layer,6,62.2,1.000,37.834,316.260,-1.422,748.828,-10.539,0.001,-2.206,38.763,0.146,0.001,-0.607,-0.029,-0.624,0.002,0.139,0.006,-100.818,0.074,0.000,-3.009,-0.001,-0.051,0.000,0.000,-0.010,0.000,-4.325,-0.145,0.236,0.000,1,1,1,1,0.000,0.000,0.034,0.023,0.013,0.014,0.006,0.006,0.034,0.014,0.000,0
20260703_211105,case01_boxes_2layer,6,62.2,1.000,37.934,315.204,-1.422,748.604,-10.525,0.001,-2.262,38.756,0.138,0.000,-0.562,-0.027,-0.578,0.001,0.146,0.006,-101.113,0.068,0.000,-2.952,-0.001,-0.052,0.000,0.000,-0.008,0.000,-4.626,-0.148,0.236,0.000,1,1,1,1,0.000,0.000,0.034,0.023,0.017,0.018,0.006,0.006,0.034,0.018,0.000,0
20260703_211105,case01_boxes_2layer,6,62.2,1.000,38.034,314.151,-1.422,748.375,-10.510,0.001,-2.322,38.748,0.151,0.000,-0.595,-0.031,-0.613,0.001,0.152,0.006,-101.414,0.067,0.000,-3.008,-0.001,-0.053,0.000,0.000,-0.013,0.000,-4.741,-0.159,0.236,0.000,1,1,1,1,0.000,0.000,0.034,0.023,0.017,0.019,0.007,0.006,0.034,0.019,0.000,0
20260703_211105,case01_boxes_2layer,6,62.2,1.000,38.141,313.022,-1.422,748.121,-10.492,0.001,-2.391,38.739,0.183,0.000,-0.696,-0.038,-0.718,0.002,0.160,0.006,-101.747,0.075,0.000,-3.330,-0.001,-0.055,0.000,-0.001,-0.019,0.000,-4.954,-0.167,0.236,0.000,1,1,1,1,0.000,0.000,0.034,0.023,0.019,0.020,0.007,0.007,0.034,0.020,0.000,0
20260703_211105,case01_boxes_2layer,6,62.2,1.000,38.242,311.968,-1.422,747.878,-10.474,0.001,-2.457,38.729,0.178,0.000,-0.655,-0.037,-0.678,0.002,0.168,0.006,-102.069,0.076,0.000,-3.222,-0.001,-0.057,0.000,-0.001,-0.019,0.000,-5.096,-0.171,0.236,0.000,1,1,1,1,0.000,0.000,0.034,0.023,0.019,0.020,0.007,0.007,0.034,0.020,0.000,0
20260703_211105,case01_boxes_2layer,6,62.2,1.000,38.350,310.838,-1.422,747.609,-10.455,0.001,-2.525,38.719,0.193,0.000,-0.688,-0.041,-0.713,0.003,0.176,0.006,-102.429,0.089,-0.001,-3.598,-0.001,-0.059,0.000,-0.001,-0.022,0.000,-5.244,-0.176,0.236,0.000,1,1,1,1,0.000,0.000,0.034,0.023,0.018,0.020,0.007,0.007,0.034,0.020,0.000,0
20260703_211105,case01_boxes_2layer,6,62.2,1.000,38.454,309.752,-1.422,747.342,-10.432,0.001,-2.603,38.707,0.224,0.001,-0.774,-0.047,-0.805,0.004,0.186,0.006,-102.789,0.093,-0.001,-3.607,-0.002,-0.062,0.000,-0.001,-0.024,0.000,-5.488,-0.184,0.236,0.000,1,1,1,1,0.000,0.000,0.034,0.023,0.020,0.021,0.007,0.007,0.034,0.021,0.000,0
20260703_211105,case01_boxes_2layer,6,62.2,1.000,38.558,308.673,-1.422,747.069,-10.410,0.001,-2.676,38.695,0.219,0.001,-0.733,-0.046,-0.764,0.004,0.196,0.006,-103.162,0.100,-0.002,-3.730,-0.002,-0.064,0.000,-0.001,-0.024,0.000,-5.652,-0.190,0.236,0.000,1,1,1,1,0.000,0.000,0.034,0.023,0.019,0.021,0.008,0.008,0.034,0.021,0.000,0
20260703_211105,case01_boxes_2layer,6,62.2,1.000,38.666,307.547,-1.422,746.774,-10.385,0.001,-2.759,38.682,0.256,0.001,-0.830,-0.054,-0.867,0.004,0.207,0.005,-103.568,0.113,-0.002,-4.054,-0.002,-0.067,0.000,-0.001,-0.026,0.000,-5.921,-0.199,0.236,0.000,1,1,1,1,0.000,0.000,0.034,0.023,0.021,0.023,0.008,0.008,0.034,0.023,0.000,0
20260703_211105,case01_boxes_2layer,6,62.2,1.000,38.778,306.385,-1.422,746.460,-10.360,0.001,-2.839,38.670,0.251,0.001,-0.801,-0.049,-0.838,0.004,0.219,0.005,-104.001,0.121,-0.001,-4.333,-0.002,-0.068,0.000,0.000,-0.015,0.000,-5.952,-0.200,0.236,0.000,1,1,1,1,0.000,0.000,0.034,0.023,0.020,0.022,0.008,0.008,0.034,0.022,0.000,0
20260703_211105,case01_boxes_2layer,6,62.2,1.000,38.882,305.308,-1.421,746.160,-10.332,0.001,-2.924,38.656,0.275,0.000,-0.849,-0.055,-0.890,0.004,0.230,0.005,-104.413,0.111,0.000,-4.123,-0.002,-0.070,0.000,0.000,-0.021,0.000,-6.290,-0.203,0.236,0.000,1,1,1,1,0.000,0.000,0.034,0.023,0.023,0.025,0.009,0.008,0.034,0.025,0.000,0
20260703_211105,case01_boxes_2layer,6,62.2,1.000,38.985,304.240,-1.421,745.854,-10.304,0.001,-3.007,38.642,0.278,0.000,-0.824,-0.058,-0.867,0.004,0.242,0.005,-104.836,0.115,0.000,-4.229,-0.002,-0.073,-0.001,-0.001,-0.025,0.000,-6.561,-0.212,0.236,0.000,1,1,1,1,0.000,0.000,0.034,0.023,0.024,0.027,0.009,0.009,0.034,0.027,0.000,0
20260703_211105,case01_boxes_2layer,6,62.2,1.000,39.094,303.125,-1.421,745.523,-10.271,0.001,-3.101,38.625,0.331,0.000,-0.946,-0.070,-1.000,0.005,0.255,0.005,-105.298,0.130,-0.001,-4.616,-0.002,-0.076,-0.001,-0.001,-0.031,-0.001,-6.687,-0.224,0.236,0.000,1,1,1,1,0.000,0.000,0.034,0.023,0.022,0.025,0.009,0.009,0.034,0.025,0.000,0
20260703_211105,case01_boxes_2layer,6,62.2,1.000,39.198,302.058,-1.421,745.195,-10.238,0.002,-3.192,38.607,0.328,0.001,-0.904,-0.070,-0.959,0.005,0.268,0.005,-105.760,0.135,-0.001,-4.623,-0.002,-0.079,-0.001,-0.002,-0.033,-0.001,-6.988,-0.235,0.236,0.000,1,1,1,1,0.000,0.000,0.034,0.023,0.023,0.027,0.010,0.009,0.034,0.027,0.000,0
20260703_211105,case01_boxes_2layer,6,62.2,1.000,39.302,300.998,-1.421,744.859,-10.200,0.002,-3.295,38.587,0.388,0.001,-1.031,-0.084,-1.098,0.007,0.283,0.005,-106.242,0.146,-0.002,-4.815,-0.002,-0.083,-0.001,-0.002,-0.038,-0.001,-7.430,-0.250,0.237,0.000,1,1,1,1,0.000,0.000,0.034,0.023,0.026,0.030,0.010,0.010,0.034,0.030,0.000,0
20260703_211105,case01_boxes_2layer,6,62.2,1.000,39.406,299.939,-1.421,744.511,-10.163,0.002,-3.390,38.568,0.370,0.001,-0.954,-0.079,-1.020,0.007,0.299,0.005,-106.746,0.158,-0.002,-5.043,-0.003,-0.086,-0.001,-0.001,-0.032,-0.001,-7.481,-0.251,0.237,0.000,1,1,1,1,0.000,0.000,0.034,0.023,0.023,0.027,0.010,0.010,0.034,0.027,0.000,0
20260703_211105,case01_boxes_2layer,6,62.2,1.000,39.509,298.886,-1.420,744.154,-10.126,0.002,-3.484,38.550,0.370,0.001,-0.937,-0.075,-1.005,0.007,0.315,0.005,-107.265,0.160,-0.002,-5.189,-0.003,-0.088,-0.001,0.000,-0.023,0.000,-7.856,-0.254,0.237,0.000,1,1,1,1,0.000,0.000,0.034,0.023,0.027,0.031,0.011,0.010,0.034,0.031,0.000,0
