run_id,case_name,cargo_count,total_mass_kg,secured_frac,Time,PosX,PosY,PosZ,VelX,VelY,VelZ,SpeedKmh,AccX,AccY,AccZ,LongAcc,LatAcc,VertAcc,Roll,Pitch,Yaw,RollRate,PitchRate,YawRate,AngVelX,AngVelY,AngVelZ,AngAccX,AngAccY,AngAccZ,SteerAngle,TargetSteer,Throttle,Brake,FL_Grounded,FR_Grounded,RL_Grounded,RR_Grounded,FL_ForwardSlip,FR_ForwardSlip,RL_ForwardSlip,RR_ForwardSlip,FL_SideSlip,FR_SideSlip,RL_SideSlip,RR_SideSlip,MaxForwardSlip,MaxSideSlip,RolloverRisk,IsRollover
20260703_214628,case01_boxes_2layer,6,213.5,1.000,27.600,432.177,-1.419,755.149,-10.719,0.000,0.291,38.602,-107.271,0.839,2.823,107.306,-0.467,0.877,0.036,0.020,-88.243,2.929,0.323,17.381,0.000,-0.008,0.000,0.077,-0.079,-0.067,-0.864,-0.029,0.247,0.000,1,1,1,1,-0.002,-0.006,0.030,-0.237,0.004,0.004,0.001,0.001,0.237,0.004,0.000,0
20260703_214628,case01_boxes_2layer,6,213.5,1.000,44.516,260.511,-1.415,719.557,-7.490,0.000,-7.357,37.795,32.290,-0.001,-76.482,28.427,-77.999,0.499,0.360,0.020,-132.913,3.240,-0.001,-446.705,0.000,-0.083,0.000,0.000,-0.749,0.006,-7.059,-0.235,0.266,0.000,1,1,1,1,0.002,0.005,0.042,0.279,0.019,0.022,0.011,0.010,0.279,0.022,0.350,0
20260703_214628,case01_boxes_2layer,6,213.5,1.000,54.462,213.908,-1.416,627.412,-1.929,0.000,-10.386,38.028,55.605,0.002,-30.289,18.458,-60.569,0.260,0.238,0.020,-168.371,-1.223,-0.003,-354.577,0.000,-0.056,0.000,0.003,0.268,-0.005,-4.810,-0.161,0.253,0.000,1,1,1,1,-0.002,-0.005,0.030,-0.234,0.013,0.015,0.007,0.007,0.234,0.015,0.350,0
20260703_214628,case01_boxes_2layer,6,213.5,1.000,60.333,214.292,-1.415,565.867,2.396,0.000,-10.255,37.911,43.249,0.002,1.309,7.260,-42.655,0.290,0.384,0.019,168.606,1.461,-0.014,-230.229,0.000,-0.089,-0.001,-0.004,-0.335,-0.004,-7.866,-0.262,0.258,0.000,1,1,1,1,0.002,0.005,0.041,0.276,0.024,0.028,0.011,0.010,0.276,0.028,0.350,0
20260703_214628,case01_boxes_2layer,6,213.5,1.000,63.817,228.917,-1.413,532.826,6.082,0.000,-8.418,37.387,36.860,-0.002,18.366,4.837,-40.896,0.386,0.542,0.017,146.770,1.582,-0.017,-218.369,0.000,-0.130,-0.001,0.003,-0.409,0.000,-11.503,-0.382,0.267,0.000,1,1,1,1,0.002,0.005,0.042,0.275,0.031,0.039,0.015,0.014,0.275,0.039,0.350,0
20260703_214628,case01_boxes_2layer,6,213.5,1.000,66.097,245.613,-1.412,516.509,8.440,-0.001,-5.856,36.981,23.583,-0.015,25.624,2.964,-34.696,0.367,0.630,0.018,127.741,0.876,0.006,-190.282,-0.001,-0.147,0.001,-0.013,-0.168,0.012,-12.692,-0.420,0.287,0.000,1,1,1,1,0.002,0.004,0.045,0.278,0.027,0.039,0.018,0.017,0.278,0.039,0.350,0
20260703_214628,case01_boxes_2layer,6,213.5,1.000,67.527,258.515,-1.411,509.732,9.506,-0.001,-3.771,36.815,10.659,0.006,20.850,1.025,-23.393,0.282,0.675,0.021,114.569,0.454,0.034,-131.723,-0.002,-0.147,0.001,-0.005,-0.002,0.003,-12.140,-0.401,0.301,0.000,1,1,1,1,-0.003,-0.004,0.032,-0.220,0.018,0.030,0.020,0.019,0.220,0.030,0.350,0
20260703_214628,case01_boxes_2layer,6,213.5,1.000,68.488,267.893,-1.414,506.614,9.920,-0.005,-2.825,37.133,4.144,-0.045,9.455,1.053,-10.270,0.029,0.407,0.020,107.815,-2.684,-0.009,-67.543,-0.006,-0.098,0.002,-0.041,0.494,0.013,-7.753,-0.257,0.294,0.000,1,1,1,1,-0.003,-0.006,0.033,-0.232,0.009,0.014,0.013,0.013,0.232,0.014,0.350,0
20260703_214628,case01_boxes_2layer,6,213.5,1.000,69.211,275.151,-1.417,504.763,10.152,-0.002,-2.347,37.512,2.321,0.029,4.785,1.059,-5.212,0.048,0.200,0.022,104.390,-2.064,0.014,-34.245,-0.003,-0.070,0.000,0.029,0.275,-0.017,-6.083,-0.202,0.292,0.000,1,1,1,1,0.002,0.006,0.046,0.292,0.017,0.020,0.009,0.009,0.292,0.020,0.155,0
20260703_214628,case01_boxes_2layer,6,213.5,1.000,69.812,281.279,-1.417,503.467,10.272,0.000,-2.013,37.683,1.198,0.028,3.337,0.467,-3.515,0.038,0.162,0.022,102.182,-0.382,0.005,-22.082,0.000,-0.058,0.000,0.031,0.129,-0.008,-4.767,-0.159,0.287,0.000,1,1,1,1,0.002,0.006,0.045,0.291,0.011,0.013,0.007,0.007,0.291,0.013,0.036,0
20260703_214628,case01_boxes_2layer,6,213.5,1.000,70.288,286.174,-1.417,502.569,10.310,0.001,-1.788,37.670,0.377,0.003,2.252,-0.050,-2.283,0.010,0.178,0.023,100.750,0.163,0.005,-14.316,0.001,-0.048,0.000,0.006,0.094,0.004,-4.166,-0.130,0.278,0.000,1,1,1,1,-0.003,-0.006,0.033,-0.236,0.011,0.013,0.006,0.006,0.236,0.013,0.000,0
20260703_214628,case01_boxes_2layer,6,213.5,1.000,71.020,293.772,-1.417,501.385,10.405,0.000,-1.473,37.832,0.953,-0.009,3.150,0.457,-3.259,0.002,0.197,0.022,98.849,0.189,-0.003,-19.019,0.000,-0.040,0.000,-0.011,0.076,0.002,-3.323,-0.111,0.273,0.000,1,1,1,1,-0.003,-0.006,0.032,-0.235,0.007,0.008,0.005,0.005,0.235,0.008,0.018,0
20260703_214628,case01_boxes_2layer,6,213.5,1.000,71.612,299.951,-1.417,500.577,10.501,-0.001,-1.275,38.080,0.953,-0.011,1.973,0.684,-2.082,-0.005,0.163,0.022,97.590,-0.339,-0.004,-12.581,-0.001,-0.034,0.000,-0.012,0.062,-0.004,-2.833,-0.095,0.275,0.000,1,1,1,1,0.002,0.006,0.044,0.286,0.007,0.008,0.004,0.004,0.286,0.008,0.000,0
20260703_214628,case01_boxes_2layer,6,213.5,1.000,72.087,304.940,-1.418,500.010,10.502,-0.001,-1.125,38.023,0.013,0.002,1.506,-0.164,-1.497,0.005,0.123,0.022,96.719,-0.399,-0.004,-8.716,-0.001,-0.030,0.000,0.002,0.041,0.005,-2.733,-0.091,0.267,0.000,1,1,1,1,-0.002,-0.006,0.032,-0.237,0.009,0.010,0.004,0.004,0.237,0.010,0.000,0
20260703_214628,case01_boxes_2layer,6,213.5,1.000,72.582,310.158,-1.418,499.493,10.537,0.000,-0.980,38.095,0.347,0.008,1.447,0.198,-1.475,0.010,0.099,0.021,95.871,-0.248,-0.002,-8.477,-0.001,-0.028,0.000,0.007,0.025,-0.001,-2.362,-0.079,0.264,0.000,1,1,1,1,-0.002,-0.006,0.032,-0.238,0.006,0.006,0.003,0.003,0.238,0.006,0.000,0
20260703_214628,case01_boxes_2layer,6,213.5,1.000,73.053,315.140,-1.418,499.059,10.601,0.000,-0.871,38.293,0.647,0.002,1.093,0.546,-1.147,0.004,0.088,0.021,95.169,-0.106,0.001,-7.024,0.000,-0.024,0.000,0.003,0.032,-0.006,-2.123,-0.066,0.268,0.000,1,1,1,1,0.002,0.006,0.043,0.286,0.007,0.008,0.003,0.003,0.286,0.008,0.000,0
20260703_214628,case01_boxes_2layer,6,213.5,1.000,73.537,320.265,-1.418,498.666,10.625,0.000,-0.766,38.349,0.236,0.001,1.052,0.152,-1.068,0.003,0.084,0.021,94.542,-0.037,0.000,-6.263,0.000,-0.022,0.000,0.002,0.027,0.000,-1.854,-0.062,0.266,0.000,1,1,1,1,0.002,0.006,0.042,0.286,0.006,0.006,0.002,0.002,0.286,0.006,0.000,0
20260703_214628,case01_boxes_2layer,6,213.5,1.000,74.017,325.363,-1.418,498.325,10.645,0.000,-0.667,38.397,0.202,0.000,0.984,0.133,-0.995,0.002,0.083,0.021,93.979,-0.014,-0.002,-5.634,0.000,-0.020,0.000,0.000,0.017,0.000,-1.752,-0.059,0.264,0.000,1,1,1,1,0.002,0.006,0.042,0.285,0.006,0.006,0.002,0.002,0.285,0.006,0.000,0
20260703_214628,case01_boxes_2layer,6,213.5,1.000,74.498,330.468,-1.418,498.030,10.662,0.000,-0.577,38.440,0.172,-0.001,0.906,0.117,-0.915,0.000,0.079,0.021,93.460,-0.034,-0.001,-5.187,0.000,-0.018,0.000,-0.001,0.016,0.000,-1.628,-0.055,0.263,0.000,1,1,1,1,0.002,0.006,0.042,0.285,0.006,0.006,0.002,0.002,0.285,0.006,0.000,0
20260703_214628,case01_boxes_2layer,6,213.5,1.000,74.980,335.605,-1.418,497.776,10.677,0.000,-0.486,38.477,0.149,0.000,0.903,0.102,-0.910,0.001,0.075,0.021,92.968,-0.049,-0.001,-4.924,0.000,-0.018,0.000,0.000,0.004,0.000,-1.563,-0.052,0.262,0.000,1,1,1,1,0.002,0.006,0.042,0.284,0.005,0.005,0.002,0.002,0.284,0.005,0.000,0
20260703_214628,case01_boxes_2layer,6,213.5,1.000,75.459,340.719,-1.418,497.563,10.690,0.000,-0.413,38.511,0.125,-0.001,0.733,0.093,-0.738,0.000,0.067,0.021,92.518,-0.072,-0.001,-4.501,0.000,-0.016,0.000,-0.002,0.026,0.000,-1.292,-0.043,0.261,0.000,1,1,1,1,0.002,0.006,0.042,0.284,0.004,0.004,0.001,0.001,0.284,0.004,0.000,0
20260703_214628,case01_boxes_2layer,6,213.5,1.000,75.938,345.824,-1.419,497.383,10.700,0.000,-0.347,38.541,0.107,-0.001,0.660,0.082,-0.664,0.000,0.057,0.021,92.133,-0.108,-0.001,-3.850,0.000,-0.014,0.000,0.000,0.019,0.000,-1.226,-0.041,0.260,0.000,1,1,1,1,0.002,0.006,0.042,0.284,0.005,0.005,0.001,0.001,0.284,0.005,0.000,0
20260703_214628,case01_boxes_2layer,6,213.5,1.000,76.415,350.925,-1.419,497.234,10.709,0.000,-0.286,38.568,0.092,0.001,0.608,0.072,-0.611,0.002,0.047,0.021,91.790,-0.093,-0.002,-3.431,0.000,-0.012,0.000,0.001,0.012,0.000,-1.106,-0.037,0.259,0.000,1,1,1,1,0.002,0.006,0.042,0.284,0.004,0.004,0.001,0.001,0.284,0.004,0.000,0
20260703_214628,case01_boxes_2layer,6,213.5,1.000,77.014,357.336,-1.419,497.086,10.719,0.000,-0.214,38.596,0.096,0.002,0.717,0.079,-0.719,0.003,0.043,0.021,91.391,-0.047,-0.001,-3.984,0.000,-0.012,0.000,0.002,0.008,0.000,-1.092,-0.033,0.258,0.000,1,1,1,1,0.002,0.006,0.041,0.284,0.005,0.005,0.001,0.001,0.284,0.005,0.000,0
20260703_214628,case01_boxes_2layer,6,213.5,1.000,77.489,362.419,-1.419,496.997,10.688,0.000,-0.163,38.481,-0.312,0.001,0.519,-0.322,-0.513,0.001,0.042,0.021,91.099,-0.002,-0.001,-2.923,0.000,-0.010,0.000,0.001,0.016,0.005,-1.024,-0.031,0.252,0.000,1,1,1,1,-0.002,-0.006,0.031,-0.238,0.004,0.004,0.001,0.001,0.238,0.004,0.000,0
20260703_214628,case01_boxes_2layer,6,213.5,1.000,77.977,367.644,-1.419,496.931,10.731,0.000,-0.114,38.634,0.433,-0.001,0.482,0.426,-0.488,0.000,0.042,0.021,90.822,-0.005,0.001,-2.774,0.000,-0.010,0.000,-0.001,0.001,-0.005,-0.888,-0.030,0.257,0.000,1,1,1,1,0.002,0.006,0.041,0.284,0.004,0.004,0.000,0.000,0.284,0.004,0.000,0
20260703_214628,case01_boxes_2layer,6,213.5,1.000,78.456,372.775,-1.419,496.888,10.736,0.000,-0.070,38.650,0.048,-0.001,0.441,0.044,-0.442,0.000,0.039,0.021,90.573,-0.027,-0.001,-2.489,0.000,-0.009,0.000,-0.001,0.008,0.000,-0.823,-0.028,0.257,0.000,1,1,1,1,0.002,0.006,0.041,0.284,0.003,0.003,0.000,0.000,0.284,0.003,0.000,0
20260703_214628,case01_boxes_2layer,6,213.5,1.000,78.938,377.937,-1.419,496.865,10.740,0.000,-0.030,38.665,0.042,0.000,0.404,0.039,-0.405,0.000,0.035,0.021,90.344,-0.045,0.000,-2.287,0.000,-0.008,0.000,0.000,0.007,0.000,-0.758,-0.025,0.257,0.000,1,1,1,1,0.002,0.006,0.041,0.284,0.003,0.003,0.000,0.000,0.284,0.003,0.000,0
20260703_214628,case01_boxes_2layer,6,213.5,1.000,79.420,383.102,-1.419,496.860,10.744,0.000,0.007,38.677,0.036,0.000,0.367,0.035,-0.367,0.000,0.030,0.021,90.135,-0.046,0.000,-2.086,0.000,-0.008,0.000,0.000,0.007,0.000,-0.694,-0.023,0.256,0.000,1,1,1,1,0.002,0.006,0.041,0.284,0.003,0.003,0.000,0.000,0.284,0.003,0.000,0
20260703_214628,case01_boxes_2layer,6,213.5,1.000,79.897,388.222,-1.419,496.873,10.747,0.000,0.044,38.689,0.031,0.001,0.370,0.031,-0.370,0.001,0.027,0.021,89.941,-0.027,-0.001,-1.946,0.000,-0.008,0.000,0.001,0.001,0.000,-0.751,-0.025,0.256,0.000,1,1,1,1,0.002,0.006,0.041,0.284,0.004,0.004,0.000,0.000,0.284,0.004,0.000,0
20260703_214628,case01_boxes_2layer,6,213.5,1.000,80.370,393.298,-1.419,496.902,10.712,0.000,0.073,38.563,-0.349,0.000,0.289,-0.348,-0.290,0.000,0.026,0.021,89.760,-0.012,-0.001,-1.804,0.000,-0.006,0.000,-0.001,0.019,0.005,-0.599,-0.020,0.250,0.000,1,1,1,1,-0.002,-0.006,0.031,-0.238,0.002,0.002,0.000,0.000,0.238,0.002,0.000,0
20260703_214628,case01_boxes_2layer,6,213.5,1.000,80.861,398.566,-1.419,496.945,10.714,0.000,0.100,38.573,0.025,-0.001,0.270,0.027,-0.269,-0.001,0.023,0.021,89.604,-0.031,0.001,-1.561,0.000,-0.005,0.000,-0.001,0.009,0.000,-0.545,-0.018,0.250,0.000,1,1,1,1,-0.002,-0.006,0.031,-0.238,0.002,0.002,0.000,0.000,0.238,0.002,0.000,0
20260703_214628,case01_boxes_2layer,6,213.5,1.000,81.335,403.651,-1.419,496.998,10.754,0.000,0.124,38.717,0.397,0.000,0.240,0.399,-0.236,0.000,0.020,0.021,89.472,-0.033,-0.001,-1.328,0.000,-0.005,0.000,0.000,-0.004,-0.005,-0.540,-0.018,0.255,0.000,1,1,1,1,0.002,0.006,0.041,0.284,0.003,0.003,0.000,0.000,0.284,0.003,0.000,0
20260703_214628,case01_boxes_2layer,6,213.5,1.000,81.818,408.845,-1.419,497.064,10.756,0.000,0.146,38.725,0.019,0.000,0.224,0.021,-0.224,0.001,0.017,0.021,89.346,-0.023,0.000,-1.258,0.000,-0.005,0.000,0.000,0.003,0.000,-0.489,-0.016,0.255,0.000,1,1,1,1,0.002,0.006,0.041,0.284,0.003,0.003,0.000,0.000,0.284,0.003,0.000,0
20260703_214628,case01_boxes_2layer,6,213.5,1.000,82.298,413.993,-1.419,497.139,10.758,0.000,0.167,38.732,0.017,0.000,0.205,0.019,-0.205,0.000,0.016,0.021,89.230,-0.011,0.000,-1.155,0.000,-0.004,0.000,0.000,0.003,0.000,-0.485,-0.015,0.255,0.000,1,1,1,1,0.002,0.006,0.041,0.284,0.003,0.003,0.000,0.000,0.284,0.003,0.000,0
20260703_214628,case01_boxes_2layer,6,213.5,1.000,82.771,419.074,-1.419,497.223,10.759,0.000,0.185,38.739,0.015,0.000,0.181,0.018,-0.181,0.000,0.016,0.021,89.127,-0.008,-0.001,-1.032,0.000,-0.004,0.000,0.000,0.004,0.000,-0.419,-0.014,0.255,0.000,1,1,1,1,0.002,0.006,0.041,0.283,0.002,0.002,0.000,0.000,0.283,0.002,0.000,0
20260703_214628,case01_boxes_2layer,6,213.5,1.000,83.372,425.530,-1.419,497.340,10.761,0.000,0.205,38.746,0.017,0.000,0.198,0.021,-0.197,0.000,0.014,0.021,89.013,-0.017,0.000,-1.144,0.000,-0.003,0.000,0.000,0.005,0.000,-0.398,-0.012,0.255,0.000,1,1,1,1,0.002,0.006,0.041,0.283,0.003,0.003,0.000,0.000,0.283,0.003,0.000,0
20260703_214628,case01_boxes_2layer,6,213.5,1.000,83.850,430.659,-1.419,497.441,10.724,0.000,0.217,38.616,-0.364,0.000,0.123,-0.362,-0.130,0.000,0.012,0.020,88.935,-0.020,0.000,-0.777,0.000,-0.002,0.000,0.000,0.012,0.005,-0.330,-0.011,0.249,0.000,1,1,1,1,-0.002,-0.006,0.031,-0.238,0.001,0.001,0.000,0.000,0.238,0.001,0.000,0
20260703_214628,case01_boxes_2layer,6,213.5,1.000,84.340,435.924,-1.419,497.550,10.763,0.000,0.229,38.757,0.389,0.000,0.121,0.391,-0.113,0.000,0.010,0.021,88.867,-0.023,0.001,-0.681,0.000,-0.003,0.000,0.000,-0.004,-0.005,-0.316,-0.011,0.255,0.000,1,1,1,1,0.002,0.006,0.041,0.284,0.002,0.002,-0.001,-0.001,0.284,0.002,0.000,0
20260703_214628,case01_boxes_2layer,6,213.5,1.000,84.808,440.955,-1.419,497.660,10.727,0.000,0.237,38.626,-0.366,0.000,0.085,-0.364,-0.092,0.000,0.008,0.020,88.812,-0.019,-0.001,-0.545,0.000,-0.001,0.000,0.000,0.011,0.005,-0.293,-0.010,0.249,0.000,1,1,1,1,-0.002,-0.006,0.031,-0.238,0.002,0.002,0.000,0.000,0.238,0.002,0.000,0
20260703_214628,case01_boxes_2layer,6,213.5,1.000,85.302,446.267,-1.419,497.779,10.728,0.000,0.245,38.630,0.011,0.000,0.076,0.013,-0.076,0.000,0.006,0.021,88.765,-0.016,0.001,-0.474,0.000,-0.001,0.000,0.000,0.004,0.000,-0.249,-0.008,0.249,0.000,1,1,1,1,-0.002,-0.006,0.031,-0.238,0.001,0.001,0.000,0.000,0.238,0.001,0.000,0
20260703_214628,case01_boxes_2layer,6,213.5,1.000,85.773,451.329,-1.419,497.897,10.767,0.000,0.251,38.771,0.388,0.000,0.063,0.390,-0.055,0.000,0.005,0.021,88.730,-0.013,-0.001,-0.350,0.000,-0.002,0.000,0.000,-0.005,-0.005,-0.222,-0.008,0.255,0.000,1,1,1,1,0.002,0.006,0.041,0.284,0.002,0.002,-0.001,-0.001,0.284,0.002,0.000,0
20260703_214628,case01_boxes_2layer,6,213.5,1.000,86.256,456.517,-1.419,498.019,10.768,0.000,0.255,38.775,0.011,0.000,0.038,0.012,-0.037,0.000,0.004,0.021,88.703,-0.013,0.000,-0.264,0.000,-0.001,0.000,0.000,0.004,0.000,-0.200,-0.007,0.254,0.000,1,1,1,1,0.002,0.006,0.041,0.284,0.002,0.002,-0.001,-0.001,0.284,0.002,0.000,0
20260703_214628,case01_boxes_2layer,6,213.5,1.000,86.738,461.705,-1.419,498.142,10.769,0.000,0.257,38.779,0.010,0.000,0.017,0.010,-0.017,0.000,0.002,0.021,88.687,-0.015,0.000,-0.162,0.000,-0.001,0.000,0.000,0.004,0.000,-0.149,-0.005,0.254,0.000,1,1,1,1,0.002,0.006,0.041,0.284,0.002,0.002,-0.001,-0.001,0.284,0.002,0.000,0
20260703_214628,case01_boxes_2layer,6,213.5,1.000,87.231,467.000,-1.419,498.269,10.770,0.000,0.257,38.782,0.009,0.000,0.002,0.009,-0.002,0.000,0.000,0.020,88.681,-0.017,-0.001,-0.059,0.000,0.000,0.000,0.000,0.003,0.000,-0.138,-0.005,0.254,0.000,1,1,1,1,0.002,0.006,0.041,0.284,0.002,0.002,-0.001,-0.001,0.284,0.002,0.000,0
20260703_214628,case01_boxes_2layer,6,213.5,1.000,87.698,472.016,-1.419,498.388,10.770,0.000,0.255,38.784,0.007,0.000,-0.016,0.007,0.016,0.000,-0.001,0.021,88.684,-0.015,0.001,0.022,0.000,0.000,0.000,0.000,0.003,0.000,-0.103,-0.004,0.254,0.000,1,1,1,1,0.002,0.006,0.041,0.284,0.001,0.001,-0.001,-0.001,0.284,0.001,0.000,0
20260703_214628,case01_boxes_2layer,6,213.5,1.000,88.183,477.232,-1.419,498.511,10.733,0.000,0.251,38.650,-0.372,0.000,-0.045,-0.373,0.036,0.000,-0.003,0.021,88.696,-0.016,0.000,0.127,0.000,0.001,0.000,0.000,0.012,0.005,-0.065,-0.002,0.248,0.000,1,1,1,1,-0.002,-0.006,0.030,-0.238,0.001,0.001,-0.001,-0.001,0.238,0.001,0.000,0
20260703_214628,case01_boxes_2layer,6,213.5,1.000,88.657,482.332,-1.419,498.629,10.771,0.000,0.247,38.786,0.380,0.000,-0.043,0.379,0.052,0.000,-0.004,0.020,88.718,-0.015,0.000,0.220,0.000,0.001,0.000,0.000,-0.005,-0.005,-0.039,-0.001,0.253,0.000,1,1,1,1,0.002,0.006,0.041,0.284,0.001,0.001,-0.001,-0.001,0.284,0.001,0.000,0
20260703_214628,case01_boxes_2layer,6,213.5,1.000,89.143,487.507,-1.219,498.743,10.220,-0.677,0.218,36.881,-5.513,-6.772,-0.282,-5.696,0.144,-6.623,0.253,-1.531,88.863,2.568,-15.518,1.443,0.002,-0.004,-0.005,0.019,-0.041,-0.046,-0.198,-0.006,0.324,0.000,0,0,1,1,0.000,0.000,0.043,0.016,0.000,0.000,0.000,0.000,0.043,0.000,0.000,0
20260703_214628,case01_boxes_2layer,6,213.5,1.000,89.738,493.599,-1.472,498.884,10.308,0.399,0.254,37.147,0.878,10.760,0.360,0.823,-0.411,10.762,-0.364,0.329,88.824,-6.170,18.599,-0.389,-0.026,-0.001,-0.018,-0.284,0.030,-0.131,-0.113,-0.004,0.315,0.000,1,1,1,1,0.001,-0.200,0.054,0.285,0.001,0.001,0.000,0.000,0.285,0.001,0.009,0
20260703_214628,case01_boxes_2layer,6,213.5,1.000,90.210,498.479,-1.397,498.999,10.354,-0.114,0.219,37.284,0.460,-5.132,-0.354,0.470,0.422,-5.126,-0.653,0.190,88.844,-2.887,-1.386,0.208,0.004,0.003,0.015,0.306,0.033,0.326,0.142,0.004,0.302,0.000,1,1,1,1,-0.003,-0.008,0.045,-0.242,-0.002,-0.002,-0.002,-0.002,0.242,0.002,0.000,0
20260703_214628,case01_boxes_2layer,6,213.5,1.000,90.702,503.406,-1.355,499.076,9.711,-1.588,0.128,35.427,-6.427,-14.734,-0.908,-6.197,0.753,-14.841,0.054,0.963,88.747,7.066,7.730,-0.973,0.008,0.000,0.094,0.037,-0.030,0.797,0.457,0.015,0.382,0.000,1,1,0,0,0.001,0.001,0.000,0.000,-0.001,-0.001,0.000,0.000,0.001,0.001,0.017,0
20260703_214628,case01_boxes_2layer,6,213.5,1.000,91.179,508.139,-1.456,499.168,9.968,0.307,0.222,35.910,2.569,18.949,0.938,2.783,-1.036,18.913,-0.453,-0.593,88.853,-5.063,-15.564,1.057,-0.025,0.005,-0.009,-0.330,0.051,-1.030,0.196,0.006,0.357,0.000,1,1,1,1,-0.009,-0.007,0.036,-0.236,0.001,0.001,-0.001,-0.001,0.236,0.001,0.001,0
20260703_214628,case01_boxes_2layer,6,213.5,1.000,91.659,512.966,-1.415,499.266,10.090,-0.019,0.179,36.331,1.226,-3.260,-0.431,1.227,0.493,-3.251,-0.719,0.156,88.989,-2.661,7.491,1.358,0.004,0.006,-0.019,0.290,0.009,-0.099,0.322,0.011,0.340,0.000,1,1,1,1,-0.003,-0.013,0.053,-0.239,-0.002,-0.002,-0.003,-0.003,0.239,0.003,0.000,0
20260703_214628,case01_boxes_2layer,6,213.5,1.000,92.141,517.860,-1.420,499.338,10.234,-0.011,0.129,36.845,1.435,0.085,-0.504,1.427,0.524,0.091,-0.403,0.121,89.148,3.153,-0.350,1.589,0.016,0.005,0.011,0.125,-0.005,0.299,0.294,0.010,0.331,0.000,1,1,1,1,0.002,0.008,0.054,0.321,0.001,0.001,-0.003,-0.003,0.321,0.003,0.000,0
20260703_214628,case01_boxes_2layer,6,213.5,1.000,92.619,522.764,-1.423,499.391,10.276,0.009,0.105,36.995,0.418,0.193,-0.233,0.415,0.239,0.192,0.042,-0.046,89.288,4.457,-1.664,1.404,0.014,0.005,0.000,-0.027,-0.004,-0.112,0.150,0.005,0.313,0.000,1,1,1,1,-0.003,-0.007,0.035,-0.251,0.001,0.001,-0.001,-0.001,0.251,0.001,0.000,0
20260703_214628,case01_boxes_2layer,6,213.5,1.000,93.102,527.759,-1.415,499.440,10.387,0.014,0.102,37.396,1.116,0.053,-0.028,1.115,0.040,0.054,0.280,0.031,89.389,2.372,0.768,1.014,0.003,0.003,-0.003,-0.106,-0.020,-0.027,0.086,0.003,0.308,0.000,1,1,1,1,0.002,0.006,0.048,0.287,0.002,0.002,-0.001,-0.001,0.287,0.002,0.000,0
20260703_214628,case01_boxes_2layer,6,213.5,1.000,93.578,532.711,-1.415,499.487,10.409,-0.010,0.097,37.472,0.213,-0.238,-0.051,0.212,0.052,-0.238,0.243,0.042,89.474,-0.369,0.110,0.850,-0.005,0.004,0.001,-0.083,0.009,0.040,0.147,0.005,0.294,0.000,1,1,1,1,-0.003,-0.006,0.035,-0.236,0.000,0.000,-0.001,-0.001,0.236,0.001,0.000,0
20260703_214628,case01_boxes_2layer,6,213.5,1.000,94.063,537.778,-1.419,499.531,10.498,-0.007,0.079,37.793,0.891,0.024,-0.180,0.890,0.187,0.024,0.051,0.016,89.581,-1.920,-0.258,1.066,-0.008,0.004,0.000,-0.024,0.004,-0.013,0.275,0.009,0.292,0.000,1,1,1,1,0.002,0.006,0.046,0.301,0.000,0.000,-0.001,-0.002,0.301,0.002,0.000,0
20260703_214628,case01_boxes_2layer,6,213.5,1.000,94.540,542.709,-1.255,499.561,10.020,-0.781,0.046,36.183,-4.773,-7.740,-0.329,-4.972,0.314,-7.614,-0.017,-1.479,89.794,-0.675,-14.950,2.126,-0.004,0.000,-0.021,0.033,-0.040,-0.212,0.276,0.009,0.355,0.000,0,0,1,1,0.000,0.000,0.045,0.183,0.000,0.000,-0.001,-0.001,0.183,0.001,0.000,0
20260703_214628,case01_boxes_2layer,6,213.5,1.000,95.020,547.518,-1.500,499.581,10.093,0.306,0.036,36.353,0.729,10.870,-0.108,0.687,0.015,10.873,-0.502,0.219,89.886,-4.856,16.977,0.929,-0.024,0.005,-0.032,-0.202,0.052,-0.106,0.361,0.012,0.343,0.000,1,1,1,1,-0.001,0.284,0.049,-0.274,0.000,0.000,-0.001,-0.001,0.284,0.001,0.000,0
20260703_214628,case01_boxes_2layer,6,213.5,1.000,95.504,552.435,-1.392,499.588,10.223,-0.068,-0.020,36.804,1.299,-3.736,-0.556,1.315,0.603,-3.723,-0.748,0.239,90.058,-2.458,0.202,1.720,0.008,0.007,0.013,0.326,0.018,0.449,0.552,0.018,0.331,0.000,1,1,1,1,0.001,0.007,0.060,0.294,-0.002,-0.002,-0.004,-0.004,0.294,0.004,0.000,0
20260703_214628,case01_boxes_2layer,6,213.5,1.000,95.967,557.070,-1.193,499.556,9.672,-1.139,-0.095,35.060,-5.515,-10.714,-0.752,-5.260,0.758,-10.842,0.037,1.350,90.142,7.857,11.103,0.840,0.015,0.005,0.019,0.064,-0.017,0.061,0.966,0.032,0.395,0.000,1,1,0,0,0.001,0.000,0.000,0.000,-0.006,-0.006,0.000,0.000,0.001,0.006,0.023,0
20260703_214628,case01_boxes_2layer,6,213.5,1.000,96.326,560.570,-1.540,499.520,9.827,0.246,-0.083,35.391,1.559,13.852,0.127,1.627,-0.117,13.844,0.075,-0.286,90.326,0.376,-16.353,1.836,-0.036,0.008,0.056,-0.511,0.028,0.371,0.588,0.019,0.378,0.000,1,1,1,1,-0.005,-0.098,0.328,-0.321,0.002,0.002,0.005,0.005,0.328,0.005,0.000,0
20260703_214628,case01_boxes_2layer,6,213.5,1.000,96.693,564.210,-1.429,499.497,9.981,0.162,-0.072,35.936,1.533,-0.839,0.108,1.525,-0.113,-0.853,-0.545,-0.461,90.494,-6.200,-1.754,1.677,-0.019,0.007,-0.029,0.177,-0.010,-0.855,0.469,0.015,0.366,0.000,1,1,1,1,-0.004,0.006,0.060,0.360,0.000,0.000,-0.003,-0.003,0.360,0.003,0.010,0
20260703_214628,case01_boxes_2layer,6,213.5,1.000,97.054,567.821,-1.415,499.463,10.073,-0.012,-0.125,36.265,0.921,-1.740,-0.535,0.932,0.546,-1.731,-0.705,0.162,90.658,-1.600,6.228,1.646,0.002,0.008,-0.019,0.203,0.011,0.104,0.655,0.022,0.352,0.000,1,1,1,1,0.002,0.014,0.063,0.308,-0.002,-0.002,-0.003,-0.003,0.308,0.003,0.000,0
20260703_214628,case01_boxes_2layer,6,213.5,1.000,97.414,571.456,-1.419,499.406,10.155,-0.009,-0.184,36.566,0.827,0.032,-0.590,0.835,0.577,0.040,-0.537,0.199,90.853,1.680,0.377,1.945,0.013,0.010,0.009,0.119,0.013,0.282,0.753,0.023,0.340,0.000,1,1,1,1,0.002,0.010,0.057,0.318,-0.002,-0.002,-0.003,-0.003,0.318,0.003,0.000,0
20260703_214628,case01_boxes_2layer,6,213.5,1.000,97.772,575.100,-1.423,499.329,10.228,-0.012,-0.230,36.829,0.721,-0.026,-0.460,0.729,0.447,-0.024,-0.219,-0.007,91.058,3.174,-2.068,2.057,0.016,0.009,0.006,0.028,-0.002,-0.035,0.638,0.021,0.330,0.000,1,1,1,1,0.002,0.007,0.052,0.329,0.000,0.000,-0.003,-0.003,0.329,0.003,0.000,0
20260703_214628,case01_boxes_2layer,6,213.5,1.000,98.132,578.779,-1.422,499.239,10.289,0.018,-0.264,37.054,0.618,0.297,-0.335,0.626,0.321,0.296,0.073,-0.036,91.253,2.922,-0.290,1.942,0.011,0.009,-0.003,-0.050,-0.005,-0.090,0.647,0.020,0.320,0.000,1,1,1,1,0.002,0.006,0.050,0.313,0.000,0.000,-0.002,-0.002,0.313,0.002,0.000,0
20260703_214628,case01_boxes_2layer,6,213.5,1.000,98.493,582.499,-1.416,499.138,10.343,0.015,-0.292,37.251,0.540,-0.031,-0.283,0.547,0.269,-0.032,0.231,0.031,91.444,1.583,0.671,1.914,0.004,0.009,-0.003,-0.075,0.001,0.002,0.657,0.022,0.312,0.000,1,1,1,1,0.002,0.006,0.049,0.292,0.000,0.000,-0.002,-0.002,0.292,0.002,0.000,0
20260703_214628,case01_boxes_2layer,6,213.5,1.000,98.853,586.226,-1.414,499.027,10.391,-0.006,-0.323,37.427,0.481,-0.209,-0.307,0.489,0.292,-0.210,0.238,0.049,91.642,0.067,0.184,1.976,-0.003,0.010,0.000,-0.066,0.006,0.034,0.716,0.024,0.304,0.000,1,1,1,1,0.002,0.006,0.048,0.292,-0.001,-0.001,-0.002,-0.002,0.292,0.002,0.000,0
20260703_214628,case01_boxes_2layer,6,213.5,1.000,99.213,589.967,-1.417,498.904,10.433,-0.010,-0.360,37.583,0.420,-0.047,-0.376,0.432,0.363,-0.047,0.132,0.026,91.855,-1.053,-0.226,2.136,-0.007,0.010,0.001,-0.039,0.010,0.006,0.848,0.028,0.298,0.000,1,1,1,1,0.002,0.006,0.047,0.300,-0.002,-0.002,-0.002,-0.002,0.300,0.002,0.000,0
20260703_214628,case01_boxes_2layer,6,213.5,1.000,99.574,593.734,-1.420,498.766,10.469,-0.005,-0.407,37.718,0.359,0.051,-0.465,0.376,0.452,0.051,-0.016,0.016,92.092,-1.485,-0.108,2.372,-0.007,0.012,0.000,-0.003,0.012,-0.011,0.957,0.032,0.293,0.000,1,1,1,1,0.002,0.007,0.047,0.305,-0.002,-0.002,-0.003,-0.003,0.305,0.003,0.000,0
20260703_214628,case01_boxes_2layer,6,213.5,1.000,99.933,597.488,-1.421,498.610,10.500,-0.002,-0.462,37.836,0.305,0.033,-0.556,0.327,0.543,0.034,-0.137,0.021,92.355,-1.212,0.057,2.627,-0.004,0.013,0.000,0.026,0.013,-0.004,1.064,0.035,0.288,0.000,1,1,1,1,0.002,0.007,0.046,0.306,-0.003,-0.003,-0.003,-0.003,0.306,0.003,0.000,0
20260703_214628,case01_boxes_2layer,6,213.5,1.000,100.295,601.287,-1.422,498.431,10.526,-0.001,-0.524,37.939,0.257,0.014,-0.618,0.286,0.606,0.016,-0.193,0.025,92.647,-0.555,0.037,2.914,-0.001,0.014,0.000,0.035,0.011,0.002,1.146,0.038,0.283,0.000,1,1,1,1,0.002,0.007,0.046,0.305,-0.003,-0.003,-0.003,-0.003,0.305,0.003,0.000,0
20260703_214628,case01_boxes_2layer,6,213.5,1.000,100.652,605.043,-1.421,498.232,10.547,0.001,-0.589,38.029,0.215,0.018,-0.652,0.248,0.640,0.020,-0.180,0.023,92.955,0.123,-0.022,3.081,0.002,0.015,0.000,0.028,0.009,0.000,1.220,0.041,0.280,0.000,1,1,1,1,0.002,0.007,0.045,0.303,-0.003,-0.003,-0.003,-0.003,0.303,0.003,0.000,0
20260703_214628,case01_boxes_2layer,6,213.5,1.000,101.012,608.835,-1.421,498.007,10.565,0.003,-0.656,38.107,0.178,0.015,-0.663,0.215,0.652,0.016,-0.127,0.021,93.282,0.534,-0.018,3.273,0.003,0.016,0.000,0.011,0.007,-0.002,1.296,0.043,0.276,0.000,1,1,1,1,0.002,0.006,0.045,0.300,-0.003,-0.003,-0.003,-0.003,0.300,0.003,0.000,0
20260703_214628,case01_boxes_2layer,6,213.5,1.000,101.369,612.611,-1.420,497.760,10.540,0.002,-0.717,38.032,-0.247,-0.001,-0.617,-0.208,0.631,0.000,-0.067,0.022,93.622,0.599,0.005,3.399,0.003,0.017,0.000,-0.004,0.013,0.005,1.288,0.043,0.267,0.000,1,1,1,1,-0.002,-0.006,0.033,-0.245,-0.004,-0.003,-0.003,-0.003,0.245,0.004,0.000,0
20260703_214628,case01_boxes_2layer,6,213.5,1.000,101.738,616.504,-1.419,497.481,10.591,0.001,-0.789,38.233,0.508,-0.014,-0.719,0.557,0.682,-0.013,-0.026,0.022,93.980,0.416,0.008,3.580,0.001,0.017,0.000,-0.015,-0.001,-0.004,1.400,0.047,0.270,0.000,1,1,1,1,0.002,0.006,0.043,0.294,-0.004,-0.004,-0.003,-0.003,0.294,0.004,0.000,0
20260703_214628,case01_boxes_2layer,6,213.5,1.000,102.216,621.559,-1.419,497.079,10.601,-0.001,-0.891,38.298,0.102,-0.019,-1.017,0.181,1.006,-0.019,-0.023,0.022,94.488,0.021,-0.004,5.083,-0.001,0.019,0.000,-0.021,0.022,0.002,1.605,0.054,0.267,0.000,1,1,1,1,0.002,0.006,0.043,0.294,-0.005,-0.004,-0.003,-0.003,0.294,0.005,0.000,0
20260703_214628,case01_boxes_2layer,6,213.5,1.000,102.699,626.680,-1.420,496.620,10.606,-0.002,-1.005,38.351,0.046,-0.007,-1.139,0.146,1.131,-0.006,-0.066,0.021,95.068,-0.425,-0.005,5.797,-0.002,0.022,0.000,-0.010,0.024,0.001,1.825,0.061,0.265,0.000,1,1,1,1,0.002,0.006,0.043,0.295,-0.006,-0.005,-0.004,-0.004,0.295,0.006,0.000,0
20260703_214628,case01_boxes_2layer,6,213.5,1.000,103.173,631.688,-1.421,496.113,10.605,-0.001,-1.133,38.393,-0.012,0.004,-1.279,0.116,1.274,0.006,-0.114,0.021,95.699,-0.485,-0.004,6.314,-0.002,0.024,0.000,0.004,0.024,0.000,2.082,0.065,0.262,0.000,1,1,1,1,0.002,0.006,0.043,0.297,-0.007,-0.007,-0.004,-0.004,0.297,0.007,0.000,0
20260703_214628,case01_boxes_2layer,6,213.5,1.000,103.663,636.879,-1.421,495.522,10.558,0.000,-1.273,38.284,-0.465,0.009,-1.400,-0.305,1.444,0.012,-0.143,0.021,96.423,-0.290,-0.002,7.233,0.000,0.027,0.000,0.010,0.034,0.004,2.285,0.068,0.255,0.000,1,1,1,1,-0.002,-0.006,0.032,-0.248,-0.008,-0.008,-0.004,-0.004,0.248,0.008,0.000,0
20260703_214628,case01_boxes_2layer,6,213.5,1.000,104.139,641.909,-1.421,494.879,10.585,0.000,-1.423,38.450,0.273,0.007,-1.502,0.459,1.456,0.010,-0.145,0.021,97.176,-0.015,-0.002,7.539,0.000,0.028,0.000,0.007,0.010,-0.006,2.449,0.082,0.259,0.000,1,1,1,1,0.002,0.006,0.042,0.297,-0.008,-0.008,-0.005,-0.005,0.297,0.008,0.000,0
20260703_214628,case01_boxes_2layer,6,213.5,1.000,104.485,645.565,-1.421,494.364,10.532,0.000,-1.543,38.320,-0.535,-0.001,-1.203,-0.368,1.264,0.002,-0.141,0.020,97.782,0.043,-0.001,6.053,0.000,0.033,0.000,0.000,0.040,0.005,2.750,0.092,0.252,0.000,1,1,1,1,-0.002,-0.006,0.031,-0.248,-0.010,-0.010,-0.005,-0.005,0.248,0.010,0.000,0
20260703_214628,case01_boxes_2layer,6,213.5,1.000,104.856,649.479,-1.421,493.761,10.551,0.000,-1.693,38.469,0.191,-0.004,-1.492,0.409,1.448,0.000,-0.141,0.020,98.501,-0.005,0.000,7.194,0.000,0.035,0.000,-0.004,0.026,-0.005,2.999,0.100,0.257,0.000,1,1,1,1,0.002,0.006,0.042,0.297,-0.010,-0.009,-0.005,-0.005,0.297,0.010,0.000,0
20260703_214628,case01_boxes_2layer,6,213.5,1.000,105.212,653.229,-1.421,493.130,10.526,-0.001,-1.844,38.472,-0.246,-0.004,-1.518,0.001,1.538,0.000,-0.150,0.020,99.260,-0.092,-0.002,7.594,-0.001,0.038,0.000,-0.004,0.033,0.001,3.231,0.108,0.256,0.000,1,1,1,1,0.002,0.006,0.042,0.298,-0.010,-0.009,-0.006,-0.006,0.298,0.010,0.000,0
20260703_214628,case01_boxes_2layer,6,213.5,1.000,105.574,657.023,-1.421,492.433,10.497,-0.001,-2.003,38.472,-0.290,-0.002,-1.588,-0.007,1.614,0.003,-0.166,0.020,100.090,-0.161,-0.001,8.296,-0.001,0.041,0.000,-0.002,0.025,0.000,3.577,0.114,0.255,0.000,1,1,1,1,0.002,0.006,0.042,0.299,-0.013,-0.012,-0.006,-0.006,0.299,0.013,0.000,0
20260703_214628,case01_boxes_2layer,6,213.5,1.000,105.936,660.808,-1.422,491.675,10.460,-0.001,-2.183,38.466,-0.376,-0.002,-1.797,-0.027,1.836,0.004,-0.187,0.020,100.989,-0.209,-0.002,8.988,-0.001,0.045,0.000,-0.003,0.044,0.001,3.896,0.130,0.254,0.000,1,1,1,1,0.002,0.006,0.042,0.300,-0.013,-0.012,-0.007,-0.007,0.300,0.013,0.000,0
20260703_214628,case01_boxes_2layer,6,213.5,1.000,106.292,664.518,-1.422,490.861,10.412,-0.001,-2.385,38.453,-0.480,-0.002,-2.023,-0.049,2.079,0.005,-0.213,0.020,101.979,-0.262,-0.003,9.904,-0.001,0.051,0.000,-0.002,0.058,0.001,4.473,0.150,0.254,0.000,1,1,1,1,0.002,0.007,0.042,0.302,-0.016,-0.015,-0.007,-0.007,0.302,0.016,0.000,0
20260703_214628,case01_boxes_2layer,6,213.5,1.000,106.652,668.250,-1.422,489.961,10.355,-0.001,-2.602,38.436,-0.569,0.000,-2.171,-0.062,2.243,0.009,-0.243,0.020,103.099,-0.296,-0.002,11.198,-0.001,0.056,0.000,0.001,0.049,0.000,4.713,0.158,0.253,0.000,1,1,1,1,0.002,0.007,0.042,0.303,-0.015,-0.013,-0.008,-0.008,0.303,0.015,0.000,0
20260703_214628,case01_boxes_2layer,6,213.5,1.000,107.014,671.980,-1.423,488.974,10.283,-0.001,-2.846,38.412,-0.714,0.002,-2.434,-0.089,2.534,0.013,-0.271,0.019,104.328,-0.276,-0.002,12.290,-0.001,0.063,0.000,-0.001,0.065,0.001,5.651,0.181,0.253,0.000,1,1,1,1,0.002,0.007,0.042,0.305,-0.023,-0.021,-0.009,-0.009,0.305,0.023,0.000,0
20260703_214628,case01_boxes_2layer,6,213.5,1.000,107.375,675.669,-1.423,487.896,10.192,-0.001,-3.123,38.375,-0.915,-0.003,-2.772,-0.129,2.916,0.012,-0.303,0.019,105.720,-0.321,-0.004,13.919,-0.002,0.071,0.000,-0.003,0.089,0.001,6.238,0.209,0.253,0.000,1,1,1,1,0.002,0.007,0.042,0.308,-0.023,-0.020,-0.009,-0.010,0.308,0.023,0.000,0
20260703_214628,case01_boxes_2layer,6,213.5,1.000,107.732,679.286,-1.423,486.725,10.084,-0.001,-3.420,38.333,-1.079,-0.001,-2.967,-0.150,3.154,0.018,-0.338,0.019,107.267,-0.352,-0.003,15.464,-0.002,0.079,0.000,0.000,0.076,0.001,7.058,0.236,0.253,0.000,1,1,1,1,0.002,0.007,0.042,0.310,-0.028,-0.025,-0.010,-0.011,0.310,0.028,0.011,0
20260703_214628,case01_boxes_2layer,6,213.5,1.000,108.097,682.929,-1.424,485.413,9.940,-0.002,-3.767,38.268,-1.438,-0.004,-3.474,-0.225,3.753,0.021,-0.381,0.018,109.051,-0.427,-0.005,17.841,-0.002,0.091,0.001,-0.006,0.124,0.003,8.207,0.275,0.253,0.000,1,1,1,1,0.002,0.007,0.042,0.313,-0.033,-0.029,-0.012,-0.012,0.313,0.033,0.053,0
20260703_214628,case01_boxes_2layer,6,213.5,1.000,108.579,687.663,-1.425,483.466,9.694,-0.002,-4.285,38.157,-2.459,-0.005,-5.183,-0.357,5.725,0.040,-0.453,0.017,111.816,-0.723,-0.007,27.657,-0.003,0.109,0.001,-0.006,0.173,0.003,9.854,0.330,0.254,0.000,1,1,1,1,0.001,0.008,0.043,0.319,-0.041,-0.035,-0.013,-0.014,0.319,0.041,0.191,0
20260703_214628,case01_boxes_2layer,6,213.5,1.000,109.060,692.232,-1.426,481.258,9.365,-0.003,-4.871,38.001,-3.296,-0.005,-5.859,-0.499,6.703,0.059,-0.544,0.016,115.107,-0.908,-0.012,32.903,-0.003,0.127,0.001,-0.002,0.183,0.003,11.020,0.368,0.251,0.000,1,1,1,1,0.001,0.008,0.043,0.325,-0.040,-0.032,-0.016,-0.016,0.325,0.040,0.259,0
20260703_214628,case01_boxes_2layer,6,213.5,1.000,109.537,696.607,-1.427,478.787,9.012,-0.001,-5.427,37.872,-3.522,0.019,-5.554,-0.426,6.562,0.089,-0.606,0.016,118.671,-0.622,-0.004,35.645,-0.001,0.129,0.000,0.021,0.017,-0.010,10.916,0.364,0.251,0.000,1,1,1,1,0.002,0.008,0.043,0.329,-0.037,-0.029,-0.017,-0.018,0.329,0.037,0.249,0
20260703_214628,case01_boxes_2layer,6,213.5,1.000,110.021,700.866,-1.427,476.023,8.592,0.001,-5.944,37.612,-4.202,0.020,-5.175,-0.794,6.618,0.089,-0.597,0.016,122.242,0.093,-0.002,35.706,0.001,0.128,0.000,0.022,-0.005,-0.006,10.772,0.359,0.249,0.000,1,1,1,1,-0.002,-0.009,0.033,-0.273,-0.037,-0.029,-0.017,-0.017,0.273,0.037,0.253,0
20260703_214628,case01_boxes_2layer,6,213.5,1.000,110.501,704.906,-1.426,473.033,8.203,0.002,-6.437,37.536,-3.896,0.006,-4.930,-0.284,6.277,0.065,-0.544,0.016,125.728,0.529,0.000,34.861,0.002,0.126,-0.001,0.006,-0.026,-0.006,10.515,0.350,0.252,0.000,1,1,1,1,-0.002,-0.008,0.033,-0.272,-0.035,-0.028,-0.016,-0.017,0.272,0.035,0.229,0
20260703_214628,case01_boxes_2layer,6,213.5,1.000,110.979,708.733,-1.425,469.832,7.837,0.001,-6.918,37.632,-3.661,-0.005,-4.810,0.196,6.042,0.047,-0.491,0.016,129.130,0.526,0.006,34.020,0.001,0.123,-0.001,-0.010,-0.027,-0.001,10.358,0.344,0.261,0.000,1,1,1,1,0.002,0.008,0.044,0.327,-0.033,-0.025,-0.016,-0.017,0.327,0.033,0.213,0
20260703_214628,case01_boxes_2layer,6,213.5,1.000,111.325,711.382,-1.425,467.379,7.491,0.000,-7.213,37.437,-3.453,-0.009,-2.947,-0.627,4.496,0.028,-0.472,0.017,131.575,0.189,0.005,24.453,0.001,0.124,0.000,-0.004,0.005,0.011,10.125,0.337,0.257,0.000,1,1,1,1,-0.003,-0.009,0.033,-0.270,-0.030,-0.023,-0.016,-0.016,0.270,0.030,0.105,0
20260703_214628,case01_boxes_2layer,6,213.5,1.000,111.694,714.089,-1.425,464.641,7.181,0.000,-7.568,37.557,-3.106,-0.008,-3.552,0.248,4.712,0.031,-0.473,0.017,134.178,-0.007,0.005,26.032,-0.001,0.122,0.000,-0.010,-0.012,0.002,10.258,0.341,0.265,0.000,1,1,1,1,0.002,0.008,0.044,0.328,-0.032,-0.024,-0.016,-0.017,0.328,0.032,0.120,0
20260703_214628,case01_boxes_2layer,6,213.5,1.000,112.054,716.604,-1.425,461.857,6.832,-0.001,-7.873,37.527,-3.489,-0.004,-3.053,-0.170,4.633,0.036,-0.488,0.018,136.720,-0.155,0.003,25.417,-0.001,0.123,0.000,-0.003,0.003,0.004,10.219,0.339,0.267,0.000,1,1,1,1,0.002,0.008,0.045,0.329,-0.031,-0.023,-0.016,-0.017,0.329,0.031,0.114,0
20260703_214628,case01_boxes_2layer,6,213.5,1.000,112.414,718.993,-1.425,458.965,6.479,-0.001,-8.160,37.508,-3.530,0.002,-2.863,-0.135,4.543,0.042,-0.506,0.018,139.256,-0.180,0.002,25.356,-0.001,0.121,0.000,0.002,-0.013,-0.002,10.125,0.336,0.269,0.000,1,1,1,1,0.002,0.009,0.045,0.330,-0.031,-0.023,-0.016,-0.017,0.330,0.031,0.108,0
20260703_214628,case01_boxes_2layer,6,213.5,1.000,112.772,721.236,-1.426,455.998,6.118,0.000,-8.430,37.496,-3.612,0.005,-2.700,-0.116,4.507,0.045,-0.516,0.018,141.744,-0.095,0.000,24.885,0.000,0.120,0.000,0.004,-0.014,-0.004,9.991,0.332,0.271,0.000,1,1,1,1,0.002,0.009,0.045,0.330,-0.030,-0.023,-0.016,-0.017,0.330,0.030,0.106,0
20260703_214628,case01_boxes_2layer,6,213.5,1.000,113.136,723.387,-1.425,452.884,5.754,0.000,-8.680,37.492,-3.635,0.005,-2.509,-0.088,4.416,0.045,-0.512,0.018,144.238,0.038,0.001,24.937,0.000,0.118,-0.001,0.004,-0.020,-0.005,9.796,0.325,0.272,0.000,1,1,1,1,0.002,0.009,0.046,0.330,-0.029,-0.022,-0.016,-0.017,0.330,0.029,0.099,0
20260703_214628,case01_boxes_2layer,6,213.5,1.000,113.617,726.029,-1.425,448.629,5.274,0.001,-8.983,37.501,-4.803,0.006,-3.028,-0.031,5.677,0.054,-0.487,0.018,147.450,0.247,0.002,32.121,0.000,0.114,-0.001,0.003,-0.040,-0.005,9.702,0.322,0.273,0.000,1,1,1,1,0.002,0.008,0.046,0.328,-0.032,-0.025,-0.015,-0.016,0.328,0.032,0.187,0
20260703_214628,case01_boxes_2layer,6,213.5,1.000,113.967,727.803,-1.425,445.452,4.907,0.001,-9.145,37.361,-3.668,0.002,-1.615,-0.456,3.982,0.034,-0.462,0.018,149.706,0.256,0.002,22.557,0.001,0.111,-0.001,0.005,-0.025,0.002,9.266,0.308,0.267,0.000,1,1,1,1,-0.002,-0.008,0.034,-0.268,-0.030,-0.024,-0.015,-0.015,0.268,0.030,0.069,0
20260703_214628,case01_boxes_2layer,6,213.5,1.000,114.331,729.524,-1.424,442.076,4.571,0.001,-9.372,37.538,-3.361,-0.001,-2.272,0.426,4.035,0.030,-0.435,0.019,151.976,0.270,0.003,22.703,0.000,0.107,-0.001,-0.006,-0.049,-0.002,9.085,0.302,0.274,0.000,1,1,1,1,0.002,0.008,0.045,0.325,-0.030,-0.024,-0.015,-0.015,0.325,0.030,0.072,0
20260703_214628,case01_boxes_2layer,6,213.5,1.000,114.810,731.597,-1.424,437.532,4.120,0.001,-9.590,37.575,-4.514,-0.003,-2.181,0.055,5.013,0.032,-0.406,0.019,154.841,0.287,0.004,28.655,0.000,0.101,-0.001,-0.002,-0.054,0.003,8.165,0.271,0.274,0.000,1,1,1,1,0.002,0.008,0.045,0.324,-0.021,-0.015,-0.014,-0.015,0.324,0.021,0.141,0
20260703_214628,case01_boxes_2layer,6,213.5,1.000,115.293,733.472,-1.424,432.856,3.684,0.000,-9.779,37.619,-4.355,-0.002,-1.886,0.083,4.745,0.030,-0.386,0.020,157.578,0.203,0.004,27.363,0.000,0.096,-0.001,-0.001,-0.055,0.002,7.846,0.261,0.274,0.000,1,1,1,1,0.002,0.008,0.045,0.322,-0.022,-0.017,-0.013,-0.014,0.322,0.022,0.122,0
20260703_214628,case01_boxes_2layer,6,213.5,1.000,115.775,735.136,-1.424,428.109,3.268,0.000,-9.940,37.669,-4.162,0.000,-1.614,0.105,4.462,0.029,-0.369,0.020,160.148,0.170,0.003,25.702,0.000,0.090,-0.001,0.000,-0.057,0.000,7.500,0.249,0.273,0.000,1,1,1,1,0.002,0.008,0.045,0.320,-0.022,-0.018,-0.013,-0.013,0.320,0.022,0.102,0
20260703_214628,case01_boxes_2layer,6,213.5,1.000,116.258,736.608,-1.423,423.277,2.870,0.001,-10.077,37.722,-3.975,0.001,-1.373,0.119,4.203,0.027,-0.351,0.020,162.572,0.183,0.002,24.236,0.000,0.084,-0.001,0.000,-0.054,-0.001,7.120,0.237,0.273,0.000,1,1,1,1,0.002,0.008,0.045,0.319,-0.022,-0.019,-0.012,-0.013,0.319,0.022,0.084,0
20260703_214628,case01_boxes_2layer,6,213.5,1.000,116.738,737.885,-1.423,418.417,2.494,0.001,-10.193,37.777,-3.768,0.001,-1.156,0.129,3.939,0.024,-0.329,0.020,164.828,0.215,0.001,22.566,0.000,0.079,-0.001,0.000,-0.054,-0.001,6.710,0.206,0.272,0.000,1,1,1,1,0.002,0.008,0.045,0.317,-0.022,-0.019,-0.012,-0.012,0.317,0.022,0.066,0
20260703_214628,case01_boxes_2layer,6,213.5,1.000,117.220,738.991,-1.423,413.483,2.137,0.001,-10.290,37.833,-3.565,0.000,-0.965,0.135,3.691,0.020,-0.305,0.020,166.950,0.235,0.002,21.215,0.000,0.074,-0.001,0.000,-0.051,0.000,6.289,0.193,0.271,0.000,1,1,1,1,0.002,0.007,0.045,0.315,-0.021,-0.018,-0.011,-0.011,0.315,0.021,0.048,0
20260703_214628,case01_boxes_2layer,6,213.5,1.000,117.702,739.929,-1.423,408.513,1.787,0.001,-10.330,37.742,-3.498,0.000,-0.408,-0.271,3.511,0.017,-0.283,0.020,168.931,0.223,0.001,19.812,0.000,0.070,-0.001,0.005,-0.042,0.002,5.455,0.182,0.264,0.000,1,1,1,1,-0.002,-0.007,0.033,-0.258,-0.013,-0.011,-0.010,-0.010,0.258,0.013,0.036,0
20260703_214628,case01_boxes_2layer,6,213.5,1.000,118.178,740.704,-1.422,403.557,1.486,0.000,-10.435,37.944,-3.018,-0.001,-1.044,0.546,3.146,0.014,-0.264,0.021,170.761,0.196,0.001,18.303,0.000,0.064,-0.001,-0.006,-0.053,0.000,5.424,0.166,0.269,0.000,1,1,1,1,0.002,0.007,0.044,0.311,-0.017,-0.015,-0.010,-0.010,0.311,0.017,0.010,0
20260703_214628,case01_boxes_2layer,6,213.5,1.000,118.658,741.337,-1.422,398.549,1.188,0.000,-10.488,37.997,-2.974,-0.001,-0.529,0.136,3.018,0.012,-0.247,0.021,172.481,0.165,0.001,17.201,0.000,0.060,-0.001,0.000,-0.043,0.001,5.005,0.167,0.268,0.000,1,1,1,1,0.002,0.007,0.044,0.310,-0.015,-0.013,-0.009,-0.009,0.310,0.015,0.001,0
20260703_214628,case01_boxes_2layer,6,213.5,1.000,119.143,741.837,-1.422,393.461,0.898,0.000,-10.490,37.903,-2.901,0.000,-0.025,-0.273,2.889,0.012,-0.233,0.021,174.107,0.145,0.000,16.262,0.000,0.057,0.000,0.005,-0.031,0.001,4.653,0.155,0.261,0.000,1,1,1,1,-0.002,-0.007,0.033,-0.255,-0.015,-0.013,-0.008,-0.008,0.255,0.015,0.000,0
20260703_214628,case01_boxes_2layer,6,213.5,1.000,119.619,742.200,-1.422,388.438,0.646,0.000,-10.563,38.097,-2.523,0.000,-0.727,0.531,2.571,0.010,-0.219,0.021,175.601,0.138,0.001,14.939,0.000,0.052,-0.001,-0.006,-0.047,-0.001,4.199,0.140,0.266,0.000,1,1,1,1,0.002,0.007,0.044,0.307,-0.010,-0.009,-0.008,-0.008,0.307,0.010,0.000,0
20260703_214628,case01_boxes_2layer,6,213.5,1.000,120.099,742.444,-1.422,383.370,0.398,0.000,-10.588,38.144,-2.476,0.000,-0.251,0.121,2.486,0.009,-0.205,0.021,177.008,0.137,0.000,14.067,0.000,0.049,-0.001,0.000,-0.033,0.000,3.832,0.140,0.265,0.000,1,1,1,1,0.002,0.007,0.043,0.305,-0.008,-0.007,-0.008,-0.008,0.305,0.008,0.000,0
20260703_214628,case01_boxes_2layer,6,213.5,1.000,120.579,742.569,-1.422,378.296,0.151,0.000,-10.606,38.184,-2.472,-0.002,-0.177,0.106,2.476,0.006,-0.197,0.021,178.361,0.083,0.000,13.533,0.000,0.048,0.000,0.000,-0.011,0.003,3.983,0.133,0.264,0.000,1,1,1,1,0.002,0.007,0.043,0.304,-0.012,-0.011,-0.008,-0.008,0.304,0.012,0.000,0
20260703_214628,case01_boxes_2layer,6,213.5,1.000,121.045,742.585,-1.422,373.353,-0.057,0.000,-10.578,38.083,-2.083,0.003,0.272,-0.287,2.081,0.010,-0.186,0.021,179.589,0.103,0.000,12.274,0.000,0.044,-0.001,0.005,-0.043,-0.004,3.312,0.111,0.258,0.000,1,1,1,1,-0.002,-0.007,0.032,-0.252,-0.008,-0.007,-0.007,-0.007,0.252,0.008,0.000,0
20260703_214628,case01_boxes_2layer,6,213.5,1.000,121.404,742.535,-1.421,369.546,-0.206,0.001,-10.585,38.114,-1.487,0.002,-0.069,0.080,1.487,0.006,-0.173,0.021,-179.558,0.139,0.000,8.537,0.000,0.041,-0.001,0.000,-0.031,-0.001,3.262,0.100,0.257,0.000,1,1,1,1,-0.002,-0.007,0.032,-0.251,-0.010,-0.010,-0.006,-0.006,0.251,0.010,0.000,0
20260703_214628,case01_boxes_2layer,6,213.5,1.000,121.770,742.430,-1.421,365.663,-0.356,0.000,-10.629,38.287,-1.494,-0.002,-0.440,0.473,1.484,0.003,-0.158,0.021,-178.737,0.144,-0.001,8.203,0.000,0.038,-0.001,-0.006,-0.026,0.001,3.059,0.102,0.262,0.000,1,1,1,1,0.002,0.007,0.043,0.300,-0.008,-0.007,-0.006,-0.006,0.300,0.008,0.000,0
20260703_214628,case01_boxes_2layer,6,213.5,1.000,122.130,742.275,-1.421,361.847,-0.490,0.000,-10.591,38.170,-1.348,-0.002,0.380,-0.332,1.361,0.002,-0.147,0.021,-177.962,0.106,0.000,7.754,0.000,0.037,0.000,0.005,-0.004,0.002,3.041,0.093,0.256,0.000,1,1,1,1,-0.002,-0.007,0.032,-0.250,-0.010,-0.009,-0.006,-0.006,0.250,0.010,0.000,0
20260703_214628,case01_boxes_2layer,6,213.5,1.000,122.495,742.068,-1.421,357.971,-0.631,0.000,-10.631,38.338,-1.404,-0.002,-0.394,0.462,1.383,0.001,-0.141,0.021,-177.202,0.060,0.001,7.605,0.000,0.035,0.000,-0.005,-0.021,0.002,2.858,0.096,0.261,0.000,1,1,1,1,0.002,0.006,0.042,0.299,-0.008,-0.007,-0.006,-0.006,0.299,0.008,0.000,0
20260703_214628,case01_boxes_2layer,6,213.5,1.000,122.849,741.820,-1.421,354.216,-0.755,0.000,-10.589,38.219,-1.242,-0.001,0.414,-0.337,1.265,0.002,-0.139,0.021,-176.488,0.023,-0.001,7.134,0.000,0.035,0.000,0.005,-0.004,0.001,2.816,0.087,0.255,0.000,1,1,1,1,-0.002,-0.007,0.032,-0.249,-0.009,-0.009,-0.005,-0.005,0.249,0.009,0.000,0
20260703_214628,case01_boxes_2layer,6,213.5,1.000,123.213,741.519,-1.421,350.354,-0.885,0.000,-10.625,38.384,-1.302,0.000,-0.361,0.456,1.272,0.003,-0.138,0.021,-175.784,0.015,0.000,7.038,0.000,0.033,0.000,-0.005,-0.023,0.000,2.616,0.087,0.260,0.000,1,1,1,1,0.002,0.006,0.042,0.298,-0.007,-0.006,-0.006,-0.006,0.298,0.007,0.000,0
20260703_214628,case01_boxes_2layer,6,213.5,1.000,123.570,741.181,-1.421,346.569,-0.998,0.000,-10.582,38.263,-1.131,0.001,0.439,-0.341,1.164,0.004,-0.135,0.021,-175.122,0.023,-0.001,6.624,0.000,0.032,0.000,0.005,-0.005,-0.001,2.567,0.073,0.254,0.000,1,1,1,1,-0.002,-0.006,0.032,-0.248,-0.008,-0.008,-0.005,-0.005,0.248,0.008,0.000,0
20260703_214628,case01_boxes_2layer,6,213.5,1.000,123.937,740.791,-1.421,342.671,-1.112,0.000,-10.616,38.427,-1.139,0.002,-0.344,0.452,1.101,0.004,-0.129,0.021,-174.482,0.063,0.001,6.397,0.000,0.029,0.000,-0.006,-0.033,-0.002,2.255,0.075,0.259,0.000,1,1,1,1,0.002,0.006,0.042,0.297,-0.005,-0.005,-0.005,-0.005,0.297,0.005,0.000,0
20260703_214628,case01_boxes_2layer,6,213.5,1.000,124.289,740.379,-1.421,338.941,-1.213,0.000,-10.571,38.304,-1.009,0.001,0.453,-0.344,1.051,0.003,-0.120,0.021,-173.906,0.087,-0.001,5.764,0.000,0.029,0.000,0.005,-0.002,0.000,2.321,0.072,0.253,0.000,1,1,1,1,-0.002,-0.006,0.031,-0.247,-0.008,-0.008,-0.005,-0.005,0.247,0.008,0.000,0
20260703_214628,case01_boxes_2layer,6,213.5,1.000,124.651,739.919,-1.421,335.117,-1.326,0.000,-10.602,38.464,-1.129,-0.002,-0.312,0.441,1.085,0.001,-0.113,0.021,-173.328,0.072,0.000,5.779,0.000,0.027,0.000,-0.005,-0.014,0.002,2.248,0.075,0.259,0.000,1,1,1,1,0.002,0.006,0.042,0.295,-0.007,-0.006,-0.005,-0.005,0.295,0.007,0.000,0
20260703_214628,case01_boxes_2layer,6,213.5,1.000,125.010,739.423,-1.421,331.312,-1.428,0.000,-10.593,38.481,-1.024,-0.001,0.085,0.045,1.026,0.001,-0.109,0.021,-172.762,0.042,0.000,5.655,0.000,0.027,0.000,0.000,-0.007,0.001,2.096,0.070,0.259,0.000,1,1,1,1,0.002,0.006,0.042,0.295,-0.005,-0.005,-0.005,-0.005,0.295,0.005,0.000,0
20260703_214628,case01_boxes_2layer,6,213.5,1.000,125.370,738.891,-1.421,327.510,-1.518,0.000,-10.546,38.356,-0.900,0.000,0.475,-0.349,0.956,0.002,-0.107,0.021,-172.216,0.024,0.000,5.469,0.000,0.026,0.000,0.005,-0.001,0.000,2.068,0.064,0.253,0.000,1,1,1,1,-0.002,-0.006,0.031,-0.246,-0.006,-0.006,-0.004,-0.004,0.246,0.006,0.000,0
20260703_214628,case01_boxes_2layer,6,213.5,1.000,125.729,738.326,-1.421,323.714,-1.610,0.000,-10.537,38.373,-0.916,0.000,0.090,0.043,0.919,0.002,-0.104,0.021,-171.695,0.026,0.000,5.208,0.000,0.025,0.000,0.000,-0.014,-0.001,1.894,0.063,0.252,0.000,1,1,1,1,-0.002,-0.006,0.031,-0.246,-0.005,-0.005,-0.004,-0.004,0.246,0.005,0.000,0
20260703_214628,case01_boxes_2layer,6,213.5,1.000,126.091,737.725,-1.420,319.899,-1.705,0.000,-10.566,38.529,-0.955,0.000,-0.289,0.432,0.900,0.002,-0.100,0.021,-171.198,0.038,0.000,4.964,0.000,0.023,0.000,-0.005,-0.022,0.000,1.775,0.059,0.258,0.000,1,1,1,1,0.002,0.006,0.042,0.294,-0.004,-0.004,-0.004,-0.004,0.294,0.004,0.000,0
20260703_214628,case01_boxes_2layer,6,213.5,1.000,126.451,737.095,-1.420,316.103,-1.788,0.000,-10.556,38.544,-0.828,0.001,0.096,0.039,0.833,0.002,-0.095,0.021,-170.731,0.052,0.000,4.679,0.000,0.022,0.000,0.000,-0.012,-0.001,1.651,0.055,0.258,0.000,1,1,1,1,0.002,0.006,0.042,0.293,-0.003,-0.003,-0.004,-0.004,0.293,0.004,0.000,0
20260703_214628,case01_boxes_2layer,6,213.5,1.000,126.812,736.436,-1.420,312.304,-1.867,0.000,-10.546,38.557,-0.793,0.000,0.098,0.037,0.798,0.001,-0.089,0.021,-170.286,0.059,0.000,4.450,0.000,0.021,0.000,0.000,-0.010,0.000,1.546,0.052,0.257,0.000,1,1,1,1,0.002,0.006,0.042,0.292,-0.003,-0.002,-0.004,-0.004,0.292,0.004,0.000,0
20260703_214628,case01_boxes_2layer,6,213.5,1.000,127.293,735.512,-1.420,307.235,-1.966,0.000,-10.533,38.575,-0.989,0.000,0.130,0.048,0.996,0.001,-0.081,0.021,-169.725,0.076,0.000,5.610,0.000,0.019,0.000,0.000,-0.014,0.000,1.474,0.049,0.257,0.000,1,1,1,1,0.002,0.006,0.042,0.292,-0.003,-0.003,-0.004,-0.004,0.292,0.004,0.000,0
20260703_214628,case01_boxes_2layer,6,213.5,1.000,127.772,734.548,-1.420,302.204,-2.059,0.000,-10.520,38.592,-0.930,-0.001,0.131,0.046,0.938,0.001,-0.075,0.021,-169.202,0.060,0.000,5.221,0.000,0.018,0.000,0.000,-0.012,0.001,1.415,0.044,0.257,0.000,1,1,1,1,0.002,0.006,0.042,0.291,-0.003,-0.003,-0.004,-0.004,0.291,0.004,0.000,0
20260703_214628,case01_boxes_2layer,6,213.5,1.000,128.255,733.532,-1.420,297.133,-2.146,0.000,-10.507,38.608,-0.869,0.000,0.128,0.044,0.877,0.001,-0.071,0.021,-168.709,0.044,0.000,4.934,0.000,0.017,0.000,0.000,-0.012,0.000,1.254,0.042,0.257,0.000,1,1,1,1,0.002,0.006,0.042,0.291,-0.002,-0.002,-0.003,-0.003,0.291,0.003,0.000,0
20260703_214628,case01_boxes_2layer,6,213.5,1.000,128.741,732.472,-1.420,292.045,-2.215,0.000,-10.458,38.485,-0.691,0.001,0.492,-0.341,0.777,0.002,-0.066,0.021,-168.259,0.055,0.001,4.503,0.000,0.016,0.000,0.005,-0.012,-0.002,1.095,0.037,0.251,0.000,1,1,1,1,-0.002,-0.006,0.031,-0.243,-0.002,-0.002,-0.003,-0.003,0.243,0.003,0.000,0
20260703_214628,case01_boxes_2layer,6,213.5,1.000,129.218,731.395,-1.420,287.049,-2.295,0.000,-10.485,38.638,-0.798,-0.001,-0.264,0.425,0.724,0.000,-0.060,0.021,-167.855,0.061,0.000,4.035,0.000,0.014,0.000,-0.005,-0.016,0.002,1.027,0.034,0.257,0.000,1,1,1,1,0.002,0.006,0.041,0.289,-0.001,-0.001,-0.003,-0.003,0.289,0.003,0.000,0
20260703_214628,case01_boxes_2layer,6,213.5,1.000,129.700,730.272,-1.420,282.004,-2.362,0.000,-10.474,38.653,-0.669,-0.001,0.107,0.040,0.677,0.000,-0.055,0.021,-167.471,0.046,0.001,3.843,0.000,0.013,0.000,0.000,-0.011,0.000,0.933,0.031,0.257,0.000,1,1,1,1,0.002,0.006,0.041,0.289,-0.001,-0.001,-0.003,-0.003,0.289,0.003,0.000,0
20260703_214628,case01_boxes_2layer,6,213.5,1.000,130.180,729.125,-1.420,276.988,-2.419,0.000,-10.465,38.668,-0.569,0.001,0.088,0.041,0.575,0.001,-0.050,0.021,-167.128,0.053,0.000,3.429,0.000,0.011,0.000,0.000,-0.018,-0.001,0.694,0.023,0.257,0.000,1,1,1,1,0.002,0.006,0.041,0.288,0.001,0.001,-0.003,-0.003,0.288,0.003,0.000,0
20260703_214628,case01_boxes_2layer,6,213.5,1.000,130.659,727.955,-1.420,271.982,-2.464,0.000,-10.459,38.682,-0.446,0.001,0.062,0.041,0.449,0.002,-0.041,0.021,-166.848,0.091,0.000,2.797,0.000,0.009,0.000,0.000,-0.023,-0.001,0.550,0.018,0.257,0.000,1,1,1,1,0.002,0.006,0.041,0.288,0.000,0.000,-0.002,-0.002,0.288,0.002,0.000,0
20260703_214628,case01_boxes_2layer,6,213.5,1.000,131.137,726.772,-1.420,267.000,-2.498,0.000,-10.455,38.698,-0.350,0.000,0.040,0.042,0.349,0.000,-0.030,0.021,-166.625,0.107,0.000,2.229,0.000,0.007,0.000,0.000,-0.021,0.000,0.366,0.012,0.257,0.000,1,1,1,1,0.002,0.006,0.041,0.287,0.001,0.001,-0.002,-0.002,0.287,0.002,0.000,0
20260703_214628,case01_boxes_2layer,6,213.5,1.000,131.620,725.559,-1.419,261.950,-2.507,0.000,-10.418,38.577,-0.090,0.001,0.366,-0.335,0.173,0.001,-0.017,0.021,-166.474,0.130,0.001,1.517,0.000,0.004,-0.001,0.005,-0.024,-0.002,0.069,0.002,0.251,0.000,1,1,1,1,-0.002,-0.006,0.031,-0.239,0.002,0.002,-0.001,-0.001,0.239,0.002,0.000,0
20260703_214628,case01_boxes_2layer,6,213.5,1.000,132.100,724.355,-1.419,256.946,-2.512,0.000,-10.459,38.723,-0.046,0.001,-0.407,0.406,-0.051,0.001,-0.001,0.021,-166.421,0.162,-0.001,0.527,0.000,-0.001,-0.001,-0.005,-0.049,0.000,-0.338,-0.012,0.255,0.000,1,1,1,1,0.002,0.006,0.041,0.285,0.004,0.004,-0.001,-0.001,0.285,0.004,0.000,0
20260703_214628,case01_boxes_2layer,6,213.5,1.000,132.580,723.150,-1.419,251.934,-2.559,0.000,-10.428,38.656,-0.469,-0.008,0.305,-0.186,0.527,-0.008,0.009,0.019,-166.417,0.097,-0.013,0.036,0.000,0.008,0.001,0.006,0.090,0.018,2.311,0.079,0.201,0.000,1,1,1,1,0.002,0.006,0.034,0.287,-0.028,-0.028,0.000,0.000,0.287,0.028,0.000,0
20260703_214628,case01_boxes_2layer,6,213.5,1.000,133.059,721.819,-1.421,247.000,-3.061,-0.009,-10.187,38.293,-5.017,-0.089,2.412,-1.048,5.468,-0.074,-0.159,0.013,-165.179,-1.682,-0.067,12.389,0.003,0.087,0.011,0.027,0.787,0.099,9.923,0.333,0.208,0.000,1,1,1,1,0.000,0.007,0.035,0.307,-0.061,-0.057,-0.005,-0.005,0.307,0.061,0.173,0
20260703_214628,case01_boxes_2layer,6,213.5,1.000,133.819,718.977,-1.430,239.540,-4.414,-0.012,-9.412,37.425,-13.533,-0.032,7.749,-2.294,15.423,0.197,-0.852,0.013,-158.663,-6.931,0.000,65.157,0.005,0.194,0.015,0.024,1.067,0.038,17.396,0.578,0.247,0.000,1,1,1,1,0.001,0.011,0.043,0.349,-0.071,-0.053,-0.021,-0.022,0.349,0.071,0.365,0
20260703_214628,case01_boxes_2layer,6,213.5,1.000,134.369,716.247,-1.434,234.569,-5.408,-0.003,-8.690,36.847,-9.936,0.092,7.221,-1.751,12.153,0.341,-1.173,0.014,-152.193,-3.203,0.010,64.700,0.002,0.210,0.003,-0.032,0.160,-0.118,18.243,0.605,0.261,0.000,1,1,1,1,-0.001,-0.011,0.037,-0.289,-0.072,-0.051,-0.025,-0.027,0.289,0.072,0.350,0
20260703_214628,case01_boxes_2layer,6,213.5,1.000,134.852,713.412,-1.433,230.507,-6.222,0.006,-8.133,36.866,-8.148,0.088,5.571,-0.153,9.866,0.278,-1.106,0.009,-146.530,0.665,-0.050,56.630,-0.004,0.197,-0.006,-0.064,-0.129,-0.092,16.039,0.529,0.279,0.000,1,1,1,1,0.002,0.011,0.049,0.359,-0.045,-0.026,-0.025,-0.027,0.359,0.045,0.350,0
20260703_214628,case01_boxes_2layer,6,213.5,1.000,135.339,710.204,-1.430,226.697,-6.881,0.009,-7.571,36.830,-6.584,0.039,5.622,-0.266,8.652,0.163,-0.822,0.008,-141.270,2.837,-0.006,52.599,-0.007,0.179,-0.009,-0.031,-0.181,-0.024,14.597,0.482,0.285,0.000,1,1,1,1,0.002,0.009,0.048,0.350,-0.040,-0.024,-0.023,-0.024,0.350,0.040,0.350,0
20260703_214628,case01_boxes_2layer,6,213.5,1.000,135.820,706.746,-1.426,223.199,-7.410,0.007,-7.005,36.709,-5.294,-0.024,5.661,-0.476,7.736,0.049,-0.541,0.013,-136.599,2.812,0.050,46.713,-0.006,0.160,-0.006,0.019,-0.187,0.027,13.283,0.439,0.283,0.000,1,1,1,1,-0.002,-0.009,0.037,-0.273,-0.041,-0.028,-0.020,-0.021,0.273,0.041,0.332,0
20260703_214628,case01_boxes_2layer,6,213.5,1.000,136.297,703.083,-1.424,219.973,-7.892,0.002,-6.559,36.940,-4.814,-0.050,4.462,0.538,6.542,-0.004,-0.396,0.018,-132.472,1.451,0.051,41.264,-0.002,0.142,-0.001,0.034,-0.180,0.046,11.739,0.388,0.291,0.000,1,1,1,1,0.002,0.008,0.048,0.334,-0.033,-0.022,-0.019,-0.020,0.334,0.033,0.248,0
20260703_214628,case01_boxes_2layer,6,213.5,1.000,136.774,699.221,-1.424,216.966,-8.280,-0.001,-6.112,37.047,-3.880,-0.032,4.470,0.222,5.915,0.008,-0.387,0.021,-128.810,0.096,0.028,36.621,0.001,0.125,0.001,0.028,-0.169,0.024,10.332,0.342,0.292,0.000,1,1,1,1,0.002,0.008,0.048,0.332,-0.029,-0.021,-0.017,-0.018,0.332,0.029,0.204,0
20260703_214628,case01_boxes_2layer,6,213.5,1.000,137.255,695.150,-1.424,214.132,-8.605,-0.001,-5.709,37.176,-3.253,-0.001,4.022,0.307,5.164,0.038,-0.428,0.022,-125.568,-0.413,0.007,32.425,0.001,0.109,0.001,0.001,-0.166,-0.001,8.913,0.295,0.292,0.000,1,1,1,1,0.002,0.009,0.048,0.330,-0.024,-0.018,-0.016,-0.016,0.330,0.024,0.151,0
20260703_214628,case01_boxes_2layer,6,213.5,1.000,137.729,691.010,-1.425,211.525,-8.835,0.001,-5.338,37.161,-2.304,0.019,3.717,-0.079,4.372,0.052,-0.433,0.021,-122.819,-0.053,-0.004,27.483,-0.001,0.094,-0.001,-0.015,-0.146,-0.017,7.420,0.246,0.285,0.000,1,1,1,1,-0.002,-0.009,0.037,-0.265,-0.018,-0.014,-0.013,-0.014,0.265,0.018,0.096,0
20260703_214628,case01_boxes_2layer,6,213.5,1.000,138.220,686.599,-1.424,208.985,-9.100,0.003,-5.049,37.464,-2.646,0.019,2.887,0.821,3.829,0.044,-0.372,0.021,-120.406,0.614,0.000,24.128,-0.003,0.078,-0.001,-0.022,-0.161,-0.006,6.166,0.205,0.290,0.000,1,1,1,1,0.002,0.008,0.047,0.322,-0.014,-0.011,-0.012,-0.012,0.322,0.014,0.058,0
20260703_214628,case01_boxes_2layer,6,213.5,1.000,138.701,682.180,-1.422,206.629,-9.246,0.003,-4.778,37.468,-1.466,0.006,2.715,-0.005,3.086,0.021,-0.271,0.022,-118.457,1.010,0.005,19.491,-0.003,0.064,-0.002,-0.004,-0.141,-0.007,4.921,0.164,0.282,0.000,1,1,1,1,-0.002,-0.008,0.036,-0.257,-0.011,-0.009,-0.010,-0.010,0.257,0.011,0.006,0
20260703_214628,case01_boxes_2layer,6,213.5,1.000,139.179,677.711,-1.421,204.389,-9.420,0.002,-4.611,37.759,-1.740,-0.007,1.661,0.800,2.269,0.000,-0.173,0.022,-116.910,0.972,0.007,15.475,-0.003,0.049,-0.001,0.004,-0.146,0.009,3.658,0.121,0.286,0.000,1,1,1,1,0.002,0.007,0.046,0.309,-0.005,-0.004,-0.009,-0.009,0.309,0.009,0.000,0
20260703_214628,case01_boxes_2layer,6,213.5,1.000,139.772,672.092,-1.420,201.717,-9.551,0.001,-4.449,37.933,-1.310,-0.013,1.620,0.485,2.026,-0.010,-0.095,0.023,-115.503,0.784,0.004,14.068,-0.002,0.033,0.000,0.014,-0.162,0.007,2.338,0.078,0.284,0.000,1,1,1,1,0.002,0.007,0.046,0.302,-0.002,-0.001,-0.006,-0.007,0.302,0.007,0.000,0
20260703_214628,case01_boxes_2layer,6,213.5,1.000,140.248,667.530,-1.420,199.621,-9.587,0.001,-4.365,37.921,-0.351,-0.005,0.839,-0.033,0.909,-0.004,-0.062,0.023,-114.758,0.333,0.000,7.446,-0.001,0.021,-0.001,0.007,-0.115,-0.002,1.220,0.040,0.277,0.000,1,1,1,1,-0.002,-0.007,0.034,-0.245,0.002,0.002,-0.005,-0.005,0.245,0.005,0.000,0
20260703_214628,case01_boxes_2layer,6,213.5,1.000,140.740,662.794,-1.420,197.477,-9.663,0.001,-4.368,38.176,-0.765,0.002,-0.024,0.706,0.294,0.002,-0.031,0.023,-114.352,0.306,-0.003,4.064,-0.001,0.007,0.000,-0.005,-0.140,0.004,0.092,0.000,0.274,0.000,1,1,1,1,0.002,0.006,0.044,0.295,0.006,0.006,-0.003,-0.003,0.295,0.006,0.000,0
20260703_214628,case01_boxes_2layer,6,213.5,1.000,141.219,658.168,-1.419,195.378,-9.665,0.001,-4.413,38.250,-0.019,0.006,-0.456,0.205,-0.408,0.006,0.014,0.022,-114.325,0.447,-0.009,0.268,-0.002,-0.006,-0.001,-0.006,-0.137,-0.003,-1.132,-0.038,0.267,0.000,1,1,1,1,0.002,0.006,0.043,0.291,0.010,0.010,-0.001,-0.001,0.291,0.010,0.000,0
20260703_214628,case01_boxes_2layer,6,213.5,1.000,141.697,653.564,-1.418,193.247,-9.625,0.002,-4.525,38.287,0.404,0.006,-1.117,0.100,-1.184,0.008,0.078,0.021,-114.689,0.644,-0.007,-3.641,-0.003,-0.021,-0.001,-0.006,-0.151,-0.003,-2.469,-0.083,0.260,0.000,1,1,1,1,0.002,0.006,0.042,0.287,0.015,0.015,0.001,0.000,0.287,0.015,0.000,0
20260703_214628,case01_boxes_2layer,6,213.5,1.000,142.174,649.011,-1.417,191.054,-9.538,0.002,-4.705,38.287,0.865,0.003,-1.797,-0.008,-1.995,0.008,0.156,0.020,-115.476,0.782,-0.006,-7.872,-0.003,-0.037,-0.001,-0.002,-0.157,-0.002,-3.776,-0.127,0.254,0.000,1,1,1,1,0.002,0.005,0.041,0.282,0.019,0.019,0.003,0.003,0.282,0.019,0.000,0
20260703_214628,case01_boxes_2layer,6,213.5,1.000,142.660,644.418,-1.416,188.706,-9.386,0.002,-4.974,38.240,1.525,0.002,-2.696,-0.148,-3.094,0.015,0.243,0.020,-116.765,0.871,-0.008,-12.888,-0.003,-0.057,-0.001,-0.003,-0.202,-0.003,-5.615,-0.188,0.249,0.000,1,1,1,1,0.002,0.005,0.040,0.278,0.025,0.027,0.005,0.005,0.278,0.027,0.007,0
20260703_214628,case01_boxes_2layer,6,213.5,1.000,143.136,640.011,-1.415,186.249,-9.145,0.003,-5.345,38.133,2.406,0.005,-3.706,-0.335,-4.405,0.032,0.344,0.018,-118.649,1.007,-0.014,-18.842,-0.004,-0.082,-0.002,-0.005,-0.248,-0.004,-7.899,-0.264,0.245,0.000,1,1,1,1,0.002,0.005,0.039,0.274,0.033,0.036,0.008,0.008,0.274,0.036,0.098,0
20260703_214628,case01_boxes_2layer,6,213.5,1.000,143.620,635.686,-1.414,183.552,-8.795,0.004,-5.814,37.954,3.499,0.006,-4.685,-0.555,-5.821,0.053,0.466,0.017,-121.304,1.220,-0.016,-26.543,-0.004,-0.109,-0.002,-0.004,-0.271,-0.004,-9.980,-0.333,0.242,0.000,1,1,1,1,0.002,0.004,0.039,0.269,0.033,0.039,0.011,0.011,0.269,0.039,0.197,0
20260703_214628,case01_boxes_2layer,6,213.5,1.000,144.100,631.596,-1.412,180.618,-8.230,0.004,-6.395,37.521,5.650,0.006,-5.811,-1.326,-7.995,0.090,0.607,0.014,-124.780,1.406,-0.024,-34.761,-0.005,-0.146,-0.004,-0.006,-0.370,-0.015,-13.747,-0.458,0.238,0.000,1,1,1,1,-0.002,-0.004,0.025,-0.223,0.047,0.058,0.015,0.015,0.223,0.058,0.350,0
20260703_214628,case01_boxes_2layer,6,213.5,1.000,144.578,627.841,-1.410,177.392,-7.502,0.006,-7.093,37.167,7.279,0.015,-6.980,-1.195,-10.013,0.153,0.793,0.009,-129.397,1.860,-0.047,-46.176,-0.006,-0.192,-0.005,-0.013,-0.460,-0.011,-17.856,-0.593,0.250,0.000,1,1,1,1,0.003,0.005,0.040,0.263,0.054,0.073,0.020,0.019,0.263,0.073,0.350,0
20260703_214628,case01_boxes_2layer,6,213.5,1.000,145.052,624.541,-1.408,173.854,-6.485,0.006,-7.806,36.534,10.169,0.004,-7.130,-2.101,-12.239,0.219,1.006,0.006,-135.223,2.130,-0.038,-58.256,-0.005,-0.234,-0.005,0.006,-0.423,-0.004,-21.955,-0.697,0.263,0.000,1,1,1,1,0.003,0.004,0.043,0.262,0.062,0.091,0.025,0.023,0.262,0.091,0.350,0
20260703_214628,case01_boxes_2layer,6,213.5,1.000,145.539,621.722,-1.405,169.893,-5.163,0.004,-8.461,35.683,13.218,-0.016,-6.553,-2.884,-14.466,0.288,1.202,0.000,-142.359,1.965,-0.056,-71.367,-0.004,-0.281,-0.005,0.013,-0.462,-0.003,-26.351,-0.905,0.288,0.000,1,1,1,1,0.002,0.001,0.050,0.268,0.064,0.106,0.029,0.026,0.268,0.106,0.350,0
20260703_214628,case01_boxes_2layer,6,213.5,1.000,146.135,619.275,-1.403,164.666,-3.245,0.003,-9.041,34.582,19.183,-0.012,-5.804,-3.599,-19.711,0.469,1.397,-0.008,-152.822,1.947,-0.076,-104.624,-0.002,-0.317,-0.002,0.025,-0.362,0.037,-29.143,-0.948,0.339,0.000,1,1,1,1,0.003,0.004,0.067,0.279,0.048,0.104,0.033,0.030,0.279,0.104,0.350,0
20260703_214628,case01_boxes_2layer,6,213.5,1.000,146.608,618.094,-1.403,160.317,-1.861,-0.003,-9.277,34.061,13.838,-0.067,-2.351,-2.213,-13.859,0.261,1.357,0.002,-161.287,-0.399,0.092,-84.652,0.002,-0.309,0.004,0.032,0.080,0.058,-28.184,-0.914,0.361,0.000,1,1,1,1,-0.004,-0.007,0.015,-0.219,0.038,0.092,0.033,0.029,0.219,0.092,0.350,0
20260703_214628,case01_boxes_2layer,6,213.5,1.000,147.098,617.537,-1.406,155.730,-0.628,-0.007,-9.467,34.157,12.328,-0.039,-1.907,-0.335,-12.468,0.214,1.165,0.002,-169.669,-1.916,0.003,-83.820,0.001,-0.279,0.010,-0.004,0.300,0.057,-24.237,-0.784,0.379,0.000,1,1,1,1,0.003,0.005,0.069,0.300,0.015,0.060,0.031,0.028,0.300,0.060,0.350,0
20260703_214628,case01_boxes_2layer,6,213.5,1.000,147.590,617.505,-1.409,151.061,0.365,-0.009,-9.571,34.480,9.930,-0.015,-1.037,0.484,-9.972,0.133,0.849,0.012,-176.816,-3.167,0.101,-71.467,0.000,-0.230,0.012,-0.011,0.490,0.018,-20.279,-0.616,0.377,0.000,1,1,1,1,0.003,0.006,0.062,0.309,0.023,0.054,0.027,0.025,0.309,0.054,0.350,0
20260703_214628,case01_boxes_2layer,6,213.5,1.000,148.057,617.879,-1.413,146.601,1.142,-0.006,-9.606,34.826,7.776,0.024,-0.352,0.683,-7.753,0.103,0.579,0.016,177.560,-2.690,0.043,-56.247,-0.001,-0.193,0.008,-0.008,0.365,-0.037,-16.157,-0.525,0.371,0.000,1,1,1,1,0.002,0.005,0.060,0.314,0.008,0.030,0.023,0.021,0.314,0.030,0.333,0
20260703_214628,case01_boxes_2layer,6,213.5,1.000,148.538,618.631,-1.414,142.003,1.868,-0.001,-9.589,35.171,7.261,0.056,0.166,0.775,-7.221,0.114,0.451,0.019,172.561,-1.283,0.031,-49.984,-0.001,-0.166,0.002,-0.001,0.276,-0.055,-14.005,-0.456,0.364,0.000,1,1,1,1,0.002,0.006,0.058,0.313,0.014,0.029,0.020,0.019,0.313,0.029,0.295,0
20260703_214628,case01_boxes_2layer,6,213.5,1.000,149.021,619.681,-1.414,137.391,2.416,0.000,-9.547,35.454,5.476,0.007,0.421,0.676,-5.450,0.046,0.408,0.027,168.526,-0.432,0.072,-40.352,0.000,-0.128,0.001,0.008,0.381,-0.014,-10.310,-0.337,0.348,0.000,1,1,1,1,-0.003,-0.007,0.038,-0.239,0.006,0.015,0.017,0.016,0.239,0.017,0.171,0
20260703_214628,case01_boxes_2layer,6,213.5,1.000,149.496,620.949,-1.414,132.854,2.876,-0.001,-9.565,35.956,4.600,-0.011,-0.175,1.329,-4.407,0.019,0.381,0.026,165.399,-0.268,-0.002,-31.266,0.000,-0.104,0.001,-0.004,0.238,0.000,-8.984,-0.271,0.344,0.000,1,1,1,1,0.002,0.006,0.054,0.306,0.018,0.024,0.013,0.013,0.306,0.024,0.098,0
20260703_214628,case01_boxes_2layer,6,213.5,1.000,149.981,622.446,-1.415,128.233,3.259,-0.001,-9.503,36.166,3.829,-0.003,0.619,0.541,-3.841,0.020,0.339,0.025,162.811,-0.423,-0.015,-25.880,0.000,-0.083,0.002,0.001,0.203,0.009,-7.318,-0.220,0.329,0.000,1,1,1,1,-0.003,-0.006,0.037,-0.239,0.016,0.020,0.011,0.011,0.239,0.020,0.059,0
20260703_214628,case01_boxes_2layer,6,213.5,1.000,150.460,624.092,-1.416,123.685,3.582,-0.002,-9.517,36.609,3.233,-0.005,-0.145,1.203,-3.004,0.010,0.276,0.025,160.733,-0.630,0.003,-20.783,-0.001,-0.069,0.002,-0.008,0.149,0.004,-5.677,-0.187,0.326,0.000,1,1,1,1,0.002,0.006,0.051,0.302,0.010,0.013,0.009,0.009,0.302,0.013,0.000,0
20260703_214628,case01_boxes_2layer,6,213.5,1.000,150.937,625.871,-1.417,119.158,3.858,-0.002,-9.493,36.888,2.759,0.001,0.248,0.755,-2.665,0.011,0.209,0.025,159.043,-0.670,-0.004,-16.898,-0.001,-0.058,0.002,0.002,0.107,-0.005,-4.674,-0.154,0.319,0.000,1,1,1,1,0.002,0.006,0.050,0.302,0.007,0.009,0.007,0.007,0.302,0.009,0.000,0
20260703_214628,case01_boxes_2layer,6,213.5,1.000,151.417,627.773,-1.417,114.618,4.056,-0.001,-9.488,37.147,1.986,0.004,0.046,0.712,-1.854,0.010,0.155,0.025,157.665,-0.544,-0.003,-13.780,-0.001,-0.043,0.002,-0.001,0.152,-0.001,-3.402,-0.113,0.311,0.000,1,1,1,1,0.002,0.006,0.049,0.300,0.006,0.007,0.006,0.006,0.300,0.007,0.000,0
20260703_214628,case01_boxes_2layer,6,213.5,1.000,151.896,629.750,-1.418,110.087,4.201,-0.001,-9.496,37.381,1.451,0.000,-0.076,0.644,-1.302,0.002,0.102,0.025,156.697,-0.521,0.001,-9.681,-0.001,-0.030,0.001,0.001,0.131,-0.002,-2.269,-0.075,0.305,0.000,1,1,1,1,0.002,0.006,0.048,0.300,0.003,0.004,0.004,0.004,0.300,0.004,0.000,0
20260703_214628,case01_boxes_2layer,6,213.5,1.000,152.503,632.340,-1.419,104.328,4.316,-0.001,-9.481,37.501,1.143,0.006,0.146,0.334,-1.103,0.007,0.054,0.024,155.887,-0.485,-0.006,-8.104,0.000,-0.018,0.001,0.007,0.121,-0.004,-1.355,-0.045,0.293,0.000,1,1,1,1,-0.003,-0.006,0.035,-0.242,0.001,0.001,0.002,0.002,0.242,0.002,0.000,0
20260703_214628,case01_boxes_2layer,6,213.5,1.000,152.971,634.380,-1.419,99.879,4.390,-0.001,-9.543,37.816,0.744,0.002,-0.621,0.874,-0.420,0.003,0.030,0.024,155.508,-0.242,-0.003,-3.784,-0.001,-0.011,0.001,-0.004,0.069,-0.005,-0.751,-0.025,0.292,0.000,1,1,1,1,0.002,0.006,0.046,0.297,0.001,0.001,0.001,0.001,0.297,0.001,0.000,0
20260703_214628,case01_boxes_2layer,6,213.5,1.000,153.451,636.490,-1.419,95.299,4.410,-0.001,-9.578,37.961,0.195,-0.002,-0.354,0.403,-0.029,-0.001,0.007,0.023,155.335,-0.228,-0.005,-1.731,-0.001,-0.003,0.001,0.000,0.081,0.001,-0.004,0.000,0.283,0.000,1,1,1,1,0.002,0.006,0.045,0.296,-0.002,-0.002,0.000,0.000,0.296,0.002,0.000,0
20260703_214628,case01_boxes_2layer,6,213.5,1.000,153.936,638.622,-1.419,90.646,4.384,-0.001,-9.624,38.072,-0.252,-0.003,-0.455,0.309,0.419,-0.003,-0.024,0.022,155.398,-0.306,-0.007,0.631,-0.001,0.006,0.001,-0.002,0.088,0.003,0.736,0.025,0.276,0.000,1,1,1,1,0.002,0.006,0.044,0.297,-0.004,-0.004,-0.001,-0.001,0.297,0.004,0.000,0
20260703_214628,case01_boxes_2layer,6,213.5,1.000,154.415,640.703,-1.420,86.032,4.314,-0.001,-9.680,38.153,-0.710,-0.002,-0.564,0.222,0.879,-0.001,-0.063,0.022,155.706,-0.395,-0.006,3.074,-0.001,0.015,0.001,-0.001,0.091,0.003,1.549,0.052,0.269,0.000,1,1,1,1,0.002,0.006,0.043,0.298,-0.007,-0.007,-0.002,-0.002,0.298,0.007,0.000,0
20260703_214628,case01_boxes_2layer,6,213.5,1.000,154.895,642.741,-1.421,81.375,4.187,-0.001,-9.751,38.203,-1.264,-0.002,-0.705,0.138,1.441,0.001,-0.110,0.021,156.284,-0.474,-0.006,5.781,-0.001,0.026,0.002,-0.001,0.106,0.003,2.503,0.084,0.263,0.000,1,1,1,1,0.002,0.006,0.043,0.300,-0.011,-0.011,-0.004,-0.004,0.300,0.011,0.000,0
20260703_214628,case01_boxes_2layer,6,213.5,1.000,155.372,644.687,-1.421,76.716,3.996,-0.002,-9.837,38.222,-1.915,-0.002,-0.858,0.048,2.098,0.004,-0.165,0.020,157.172,-0.541,-0.007,8.882,-0.001,0.038,0.002,-0.001,0.125,0.002,3.653,0.122,0.258,0.000,1,1,1,1,0.002,0.007,0.042,0.303,-0.016,-0.015,-0.005,-0.005,0.303,0.016,0.000,0
20260703_214628,case01_boxes_2layer,6,213.5,1.000,155.860,646.567,-1.422,71.899,3.724,-0.002,-9.938,38.207,-2.719,-0.002,-1.014,-0.055,2.902,0.009,-0.228,0.020,158.464,-0.634,-0.006,12.923,-0.001,0.054,0.002,-0.001,0.152,0.004,5.140,0.163,0.253,0.000,1,1,1,1,0.002,0.007,0.042,0.306,-0.023,-0.022,-0.007,-0.007,0.306,0.023,0.000,0
20260703_214628,case01_boxes_2layer,6,213.5,1.000,156.339,648.263,-1.423,67.112,3.369,-0.002,-10.049,38.154,-3.549,-0.002,-1.104,-0.166,3.713,0.018,-0.298,0.019,160.165,-0.703,-0.009,17.004,-0.001,0.070,0.002,0.000,0.161,0.003,6.581,0.220,0.249,0.000,1,1,1,1,0.002,0.007,0.041,0.311,-0.029,-0.027,-0.009,-0.009,0.311,0.029,0.050,0
20260703_214628,case01_boxes_2layer,6,213.5,1.000,156.819,649.753,-1.424,62.267,2.864,-0.003,-10.168,38.030,-5.045,-0.010,-1.196,-0.382,5.171,0.025,-0.389,0.017,162.438,-0.911,-0.015,22.731,-0.001,0.096,0.004,-0.003,0.259,0.012,9.066,0.289,0.244,0.000,1,1,1,1,0.002,0.008,0.041,0.318,-0.041,-0.037,-0.011,-0.012,0.318,0.041,0.152,0
20260703_214628,case01_boxes_2layer,6,213.5,1.000,157.302,650.968,-1.426,57.332,2.178,-0.004,-10.234,37.666,-6.862,-0.009,-0.653,-1.085,6.807,0.052,-0.517,0.016,165.512,-1.275,-0.018,30.744,-0.001,0.126,0.005,0.005,0.306,0.013,11.658,0.389,0.236,0.000,1,1,1,1,-0.003,-0.008,0.031,-0.274,-0.052,-0.045,-0.014,-0.015,0.274,0.052,0.266,0
20260703_214628,case01_boxes_2layer,6,213.5,1.000,157.770,651.785,-1.427,52.508,1.290,-0.006,-10.324,37.455,-8.877,-0.016,-0.902,-0.742,8.892,0.089,-0.679,0.012,169.428,-1.620,-0.035,39.159,-0.001,0.169,0.007,-0.005,0.427,0.021,15.902,0.529,0.244,0.000,1,1,1,1,0.001,0.010,0.042,0.340,-0.073,-0.058,-0.018,-0.019,0.340,0.073,0.350,0
20260703_214628,case01_boxes_2layer,6,213.5,1.000,158.127,652.090,-1.430,48.833,0.458,-0.007,-10.238,36.893,-8.319,-0.012,0.860,-1.830,8.160,0.107,-0.839,0.009,173.259,-1.605,-0.036,38.312,-0.001,0.206,0.008,0.009,0.367,0.012,19.430,0.622,0.241,0.000,1,1,1,1,-0.002,-0.009,0.033,-0.288,-0.093,-0.073,-0.021,-0.023,0.288,0.093,0.350,0
20260703_214628,case01_boxes_2layer,6,213.5,1.000,158.620,651.948,-1.433,43.818,-0.995,-0.009,-9.996,36.164,-14.534,-0.017,2.417,-2.425,14.530,0.263,-1.104,0.001,179.966,-2.646,-0.079,67.067,0.000,0.271,0.010,0.006,0.652,0.021,25.700,0.847,0.267,0.000,1,1,1,1,-0.001,0.009,0.047,0.374,-0.122,-0.085,-0.027,-0.030,0.374,0.122,0.350,0
20260703_214628,case01_boxes_2layer,6,213.5,1.000,159.098,651.057,-1.437,39.171,-2.574,-0.007,-9.426,35.177,-15.793,0.013,5.698,-3.375,16.442,0.410,-1.382,-0.006,-171.757,-2.780,-0.065,82.767,0.001,0.321,0.008,0.007,0.506,-0.021,29.090,0.950,0.341,0.000,1,1,1,1,-0.001,0.014,0.059,0.379,-0.121,-0.070,-0.033,-0.037,0.379,0.121,0.350,0
20260703_214628,case01_boxes_2layer,6,213.5,1.000,159.577,649.477,-1.437,34.786,-3.846,0.004,-8.943,35.045,-12.716,0.111,4.836,-0.940,13.565,0.455,-1.452,0.007,-163.141,-0.702,0.128,86.161,-0.002,0.296,-0.004,-0.026,-0.250,-0.119,24.573,0.800,0.356,0.000,1,1,1,1,0.003,0.017,0.062,0.347,-0.071,-0.026,-0.034,-0.038,0.347,0.071,0.350,0
20260703_214628,case01_boxes_2layer,6,213.5,1.000,160.058,647.380,-1.433,30.572,-4.721,0.013,-8.641,35.449,-8.749,0.094,3.013,0.811,9.213,0.278,-1.141,0.013,-155.967,3.112,0.057,71.742,-0.007,0.222,-0.016,-0.053,-0.741,-0.120,17.927,0.585,0.345,0.000,1,1,1,1,0.004,0.013,0.058,0.341,-0.042,-0.016,-0.029,-0.032,0.341,0.042,0.350,0
20260703_214628,case01_boxes_2layer,6,213.5,1.000,160.535,644.947,-1.427,26.531,-5.391,0.015,-8.360,35.812,-6.707,0.014,2.812,0.832,7.224,0.093,-0.631,0.011,-150.679,5.100,-0.014,52.876,-0.009,0.169,-0.015,-0.019,-0.537,0.002,13.631,0.446,0.335,0.000,1,1,1,1,0.003,0.010,0.055,0.354,-0.030,-0.015,-0.023,-0.024,0.354,0.030,0.296,0
20260703_214628,case01_boxes_2layer,6,213.5,1.000,161.020,642.177,-1.422,22.558,-5.952,0.007,-8.014,35.937,-5.609,-0.078,3.466,0.219,6.590,-0.048,-0.260,0.018,-146.383,3.707,0.067,42.965,-0.004,0.144,-0.006,0.049,-0.244,0.091,11.691,0.384,0.321,0.000,1,1,1,1,-0.002,-0.008,0.040,-0.264,-0.027,-0.017,-0.018,-0.019,0.264,0.027,0.251,0
20260703_214628,case01_boxes_2layer,6,213.5,1.000,161.499,639.200,-1.421,18.779,-6.426,-0.001,-7.791,36.356,-4.733,-0.080,2.227,1.089,5.116,-0.063,-0.182,0.025,-142.781,0.788,0.072,36.019,0.000,0.120,0.001,0.047,-0.247,0.076,9.843,0.324,0.319,0.000,1,1,1,1,0.002,0.008,0.051,0.333,-0.024,-0.016,-0.016,-0.017,0.333,0.024,0.148,0
20260703_214628,case01_boxes_2layer,6,213.5,1.000,161.981,636.001,-1.422,15.103,-6.816,-0.005,-7.483,36.438,-3.901,-0.037,3.078,0.175,4.966,-0.012,-0.289,0.025,-139.700,-1.072,0.004,30.812,0.004,0.106,0.004,0.034,-0.137,0.026,9.106,0.279,0.306,0.000,1,1,1,1,-0.002,-0.009,0.039,-0.265,-0.030,-0.024,-0.014,-0.015,0.265,0.030,0.138,0
20260703_214628,case01_boxes_2layer,6,213.5,1.000,162.461,632.622,-1.424,11.570,-7.189,-0.003,-7.202,36.633,-3.734,0.014,2.814,0.496,4.649,0.049,-0.428,0.023,-136.913,-1.389,-0.021,27.870,0.003,0.098,0.003,-0.009,-0.077,-0.013,7.939,0.262,0.300,0.000,1,1,1,1,-0.003,-0.009,0.039,-0.267,-0.020,-0.015,-0.013,-0.014,0.267,0.020,0.115,0
20260703_214628,case01_boxes_2layer,6,213.5,1.000,163.058,628.180,-1.425,7.369,-7.641,0.001,-6.873,36.998,-4.516,0.041,3.287,0.996,5.496,0.088,-0.481,0.022,-133.682,-0.529,-0.016,32.310,-0.001,0.091,0.000,-0.037,-0.072,-0.030,7.974,0.244,0.299,0.000,1,1,1,1,0.002,0.009,0.049,0.333,-0.027,-0.023,-0.013,-0.013,0.333,0.027,0.175,0
20260703_214628,case01_boxes_2layer,6,213.5,1.000,163.528,624.522,-1.424,4.222,-7.910,0.003,-6.558,36.991,-2.694,0.020,3.147,-0.052,4.142,0.050,-0.420,0.021,-131.292,0.605,-0.009,23.897,-0.002,0.087,-0.002,-0.014,-0.040,-0.020,7.310,0.243,0.287,0.000,1,1,1,1,-0.002,-0.009,0.037,-0.265,-0.023,-0.019,-0.012,-0.012,0.265,0.023,0.080,0
20260703_214628,case01_boxes_2layer,6,213.5,1.000,164.012,620.606,-1.423,1.116,-8.229,0.002,-6.285,37.278,-3.191,-0.002,2.729,0.767,4.128,0.022,-0.329,0.021,-128.945,0.906,-0.001,23.469,-0.002,0.082,-0.002,-0.003,-0.048,0.007,6.925,0.230,0.289,0.000,1,1,1,1,0.002,0.008,0.047,0.323,-0.020,-0.017,-0.012,-0.012,0.323,0.020,0.079,0
20260703_214628,case01_boxes_2layer,6,213.5,1.000,164.497,616.551,-1.422,-1.852,-8.486,0.001,-5.990,37.392,-2.563,-0.016,2.959,0.287,3.904,0.003,-0.272,0.021,-126.691,0.572,0.005,22.543,-0.001,0.079,0.000,0.014,-0.030,0.012,6.550,0.217,0.284,0.000,1,1,1,1,0.002,0.008,0.046,0.320,-0.018,-0.014,-0.011,-0.012,0.320,0.018,0.063,0
20260703_214628,case01_boxes_2layer,6,213.5,1.000,165.101,611.332,-1.422,-5.344,-8.752,-0.001,-5.576,37.358,-2.663,-0.018,4.136,-0.103,4.918,0.006,-0.276,0.021,-123.966,-0.034,0.001,27.254,0.001,0.079,0.000,0.021,-0.005,0.008,6.487,0.216,0.273,0.000,1,1,1,1,-0.003,-0.008,0.034,-0.261,-0.019,-0.016,-0.011,-0.011,0.261,0.019,0.134,0
20260703_214628,case01_boxes_2layer,6,213.5,1.000,165.567,607.197,-1.423,-7.868,-8.963,-0.001,-5.267,37.426,-2.115,-0.003,3.092,0.163,3.742,0.017,-0.312,0.021,-121.876,-0.361,-0.004,20.894,0.001,0.079,0.001,0.003,0.003,0.002,6.695,0.223,0.270,0.000,1,1,1,1,-0.002,-0.008,0.034,-0.262,-0.023,-0.020,-0.011,-0.011,0.262,0.023,0.052,0
20260703_214628,case01_boxes_2layer,6,213.5,1.000,166.057,602.729,-1.423,-10.368,-9.214,-0.001,-4.938,37.633,-2.503,0.004,3.285,0.550,4.093,0.029,-0.346,0.020,-119.651,-0.348,-0.005,22.254,0.001,0.079,0.001,-0.007,0.006,0.002,6.813,0.227,0.273,0.000,1,1,1,1,0.002,0.008,0.045,0.320,-0.022,-0.019,-0.011,-0.011,0.320,0.022,0.077,0
20260703_214628,case01_boxes_2layer,6,213.5,1.000,166.540,598.234,-1.424,-12.653,-9.379,0.000,-4.544,37.520,-1.658,0.006,3.941,-0.342,4.262,0.033,-0.363,0.020,-117.405,-0.166,-0.005,22.461,0.000,0.083,0.000,-0.003,0.034,-0.008,7.043,0.235,0.264,0.000,1,1,1,1,-0.002,-0.008,0.034,-0.264,-0.024,-0.021,-0.011,-0.011,0.264,0.024,0.088,0
20260703_214628,case01_boxes_2layer,6,213.5,1.000,167.140,592.522,-1.424,-15.232,-9.646,0.000,-4.072,37.694,-2.669,0.001,4.720,0.472,5.401,0.036,-0.368,0.019,-114.491,-0.049,-0.005,29.137,0.000,0.087,0.000,-0.004,0.039,0.004,7.475,0.249,0.267,0.000,1,1,1,1,0.002,0.008,0.044,0.320,-0.025,-0.021,-0.012,-0.012,0.320,0.025,0.168,0
20260703_214628,case01_boxes_2layer,6,213.5,1.000,167.610,587.948,-1.424,-17.035,-9.820,0.000,-3.632,37.692,-1.734,-0.004,4.400,-0.046,4.730,0.027,-0.377,0.019,-112.065,-0.092,-0.005,24.262,0.000,0.092,0.000,0.004,0.055,0.002,8.006,0.266,0.265,0.000,1,1,1,1,0.002,0.008,0.044,0.321,-0.027,-0.023,-0.012,-0.013,0.321,0.027,0.121,0
20260703_214628,case01_boxes_2layer,6,213.5,1.000,168.100,583.100,-1.424,-18.687,-9.979,-0.001,-3.147,37.668,-1.593,-0.005,4.855,-0.107,5.108,0.031,-0.403,0.019,-109.357,-0.262,-0.002,27.074,0.001,0.100,0.001,0.006,0.072,0.002,8.779,0.292,0.263,0.000,1,1,1,1,0.002,0.008,0.044,0.323,-0.032,-0.027,-0.013,-0.013,0.323,0.032,0.148,0
20260703_214628,case01_boxes_2layer,6,213.5,1.000,168.579,578.286,-1.425,-20.053,-10.120,-0.001,-2.600,37.616,-1.413,-0.005,5.463,-0.195,5.639,0.039,-0.446,0.018,-106.480,-0.427,-0.006,28.771,0.002,0.110,0.001,0.007,0.100,0.001,9.893,0.308,0.262,0.000,1,1,1,1,0.002,0.008,0.044,0.326,-0.039,-0.033,-0.014,-0.014,0.326,0.039,0.185,0
20260703_214628,case01_boxes_2layer,6,213.5,1.000,169.059,573.409,-1.425,-21.145,-10.235,-0.002,-2.010,37.549,-1.145,-0.001,5.905,-0.246,6.009,0.051,-0.500,0.017,-103.324,-0.537,-0.006,31.565,0.002,0.118,0.001,-0.001,0.080,-0.001,10.141,0.337,0.261,0.000,1,1,1,1,0.002,0.008,0.044,0.329,-0.035,-0.028,-0.015,-0.016,0.329,0.035,0.211,0
20260703_214628,case01_boxes_2layer,6,213.5,1.000,169.538,568.482,-1.426,-21.936,-10.313,-0.002,-1.321,37.429,-0.778,-0.001,6.885,-0.416,6.916,0.065,-0.552,0.016,-99.891,-0.523,-0.012,34.328,0.002,0.133,0.001,0.007,0.159,-0.001,11.895,0.395,0.261,0.000,1,1,1,1,0.001,0.009,0.044,0.333,-0.045,-0.036,-0.016,-0.017,0.333,0.045,0.274,0
20260703_214628,case01_boxes_2layer,6,213.5,1.000,170.007,563.641,-1.427,-22.358,-10.287,-0.003,-0.526,37.083,0.251,-0.010,7.955,-1.080,7.885,0.076,-0.630,0.014,-95.996,-0.782,-0.019,38.947,0.003,0.156,0.000,0.011,0.225,-0.006,13.644,0.453,0.256,0.000,1,1,1,1,-0.003,-0.010,0.034,-0.278,-0.051,-0.039,-0.018,-0.019,0.278,0.051,0.342,0
20260703_214628,case01_boxes_2layer,6,213.5,1.000,170.365,559.954,-1.428,-22.418,-10.249,-0.003,0.148,36.902,0.381,-0.003,6.736,-0.691,6.711,0.080,-0.705,0.013,-92.635,-0.750,-0.010,33.609,0.004,0.173,0.000,0.005,0.169,-0.002,15.710,0.522,0.256,0.000,1,1,1,1,-0.002,-0.009,0.034,-0.281,-0.067,-0.052,-0.019,-0.021,0.281,0.067,0.260,0
20260703_214628,case01_boxes_2layer,6,213.5,1.000,170.737,556.149,-1.429,-22.209,-10.160,-0.004,0.953,36.735,0.898,-0.008,8.052,-0.721,8.069,0.104,-0.794,0.010,-88.741,-0.890,-0.030,38.945,0.005,0.199,0.000,0.014,0.259,0.001,19.211,0.636,0.243,0.000,1,1,1,1,0.001,0.010,0.043,0.354,-0.092,-0.072,-0.021,-0.023,0.354,0.092,0.350,0
20260703_214628,case01_boxes_2layer,6,213.5,1.000,171.217,551.380,-1.432,-21.394,-9.657,-0.010,2.373,35.799,5.026,-0.063,14.199,-3.043,14.750,0.202,-1.030,-0.003,-82.166,-2.362,-0.133,65.753,0.011,0.275,-0.001,0.058,0.766,-0.014,26.518,0.871,0.297,0.000,1,1,1,1,0.000,0.010,0.051,0.376,-0.127,-0.089,-0.027,-0.030,0.376,0.127,0.350,0
20260703_214628,case01_boxes_2layer,6,213.5,1.000,171.698,546.896,-1.436,-19.882,-8.998,-0.006,3.762,35.108,6.593,0.042,13.888,-2.505,15.163,0.391,-1.319,0.001,-73.981,-2.880,0.039,81.841,0.008,0.307,-0.001,-0.032,0.314,0.000,27.447,0.896,0.343,0.000,1,1,1,1,0.002,0.012,0.060,0.409,-0.108,-0.060,-0.032,-0.036,0.409,0.108,0.350,0
20260703_214628,case01_boxes_2layer,6,213.5,1.000,172.183,542.678,-1.436,-17.757,-8.410,0.005,4.870,34.987,5.873,0.106,11.081,-0.839,12.507,0.402,-1.356,0.013,-65.915,-0.374,0.125,80.669,-0.004,0.275,0.002,-0.123,-0.322,0.032,23.814,0.778,0.349,0.000,1,1,1,1,0.000,-0.015,0.050,-0.212,-0.084,-0.046,-0.031,-0.034,0.212,0.084,0.350,0
20260703_214628,case01_boxes_2layer,6,213.5,1.000,172.658,538.763,-1.432,-15.219,-8.085,0.012,5.659,35.525,3.257,0.073,7.887,1.226,8.442,0.229,-1.055,0.012,-59.306,3.012,-0.015,66.090,-0.014,0.208,0.008,-0.093,-0.662,0.067,17.011,0.512,0.350,0.000,1,1,1,1,0.005,0.014,0.059,0.388,-0.042,-0.019,-0.028,-0.030,0.388,0.042,0.350,0
20260703_214628,case01_boxes_2layer,6,213.5,1.000,173.141,534.944,-1.426,-12.325,-7.738,0.014,6.239,35.783,3.471,0.024,5.806,0.561,6.741,0.090,-0.567,0.014,-54.369,4.877,0.021,49.364,-0.013,0.157,0.009,0.004,-0.518,0.011,12.994,0.388,0.334,0.000,1,1,1,1,-0.002,-0.010,0.043,-0.268,-0.036,-0.023,-0.021,-0.022,0.268,0.036,0.262,0
20260703_214628,case01_boxes_2layer,6,213.5,1.000,173.619,531.297,-1.421,-9.222,-7.562,0.008,6.674,36.311,1.751,-0.061,4.352,1.401,4.478,-0.045,-0.200,0.022,-50.710,3.675,0.082,36.595,-0.007,0.112,0.007,0.062,-0.447,-0.029,8.199,0.269,0.331,0.000,1,1,1,1,0.002,0.008,0.053,0.332,-0.006,0.001,-0.017,-0.018,0.332,0.018,0.103,0
20260703_214628,case01_boxes_2layer,6,213.5,1.000,174.099,527.713,-1.419,-5.933,-7.403,0.001,6.985,36.642,1.594,-0.073,3.110,0.890,3.380,-0.069,-0.050,0.027,-48.103,1.495,0.047,26.070,-0.001,0.080,0.001,0.063,-0.319,-0.054,6.019,0.198,0.322,0.000,1,1,1,1,0.002,0.008,0.051,0.322,-0.007,-0.004,-0.013,-0.013,0.322,0.013,0.027,0
20260703_214628,case01_boxes_2layer,6,213.5,1.000,174.580,524.197,-1.420,-2.509,-7.234,-0.003,7.216,36.783,1.693,-0.045,2.305,0.375,2.835,-0.040,-0.092,0.026,-46.160,-0.424,-0.007,19.424,0.002,0.062,-0.003,0.032,-0.177,-0.039,4.680,0.155,0.309,0.000,1,1,1,1,-0.003,-0.008,0.038,-0.255,-0.007,-0.006,-0.010,-0.010,0.255,0.010,0.000,0
20260703_214628,case01_boxes_2layer,6,213.5,1.000,175.059,520.765,-1.422,1.008,-7.135,-0.003,7.463,37.169,0.989,0.001,2.470,1.065,2.438,0.010,-0.204,0.025,-44.581,-1.119,-0.013,15.797,0.003,0.052,-0.002,0.004,-0.104,0.003,4.017,0.133,0.308,0.000,1,1,1,1,0.002,0.008,0.050,0.320,-0.007,-0.005,-0.009,-0.009,0.320,0.009,0.000,0
20260703_214628,case01_boxes_2layer,6,213.5,1.000,175.537,517.380,-1.422,4.618,-7.050,0.000,7.629,37.395,0.851,0.034,1.662,0.625,1.760,0.042,-0.253,0.024,-43.345,-0.486,-0.009,12.360,0.000,0.038,0.000,-0.027,-0.139,0.027,2.671,0.088,0.302,0.000,1,1,1,1,0.002,0.008,0.049,0.317,-0.001,0.000,-0.007,-0.007,0.317,0.007,0.000,0
20260703_214628,case01_boxes_2layer,6,213.5,1.000,176.011,514.061,-1.422,8.263,-6.988,0.003,7.760,37.595,0.613,0.027,1.309,0.552,1.336,0.032,-0.201,0.023,-42.449,0.525,-0.008,8.953,-0.002,0.028,0.003,-0.021,-0.105,0.023,1.963,0.065,0.297,0.000,1,1,1,1,0.002,0.007,0.048,0.311,-0.002,-0.001,-0.006,-0.006,0.311,0.006,0.000,0
20260703_214628,case01_boxes_2layer,6,213.5,1.000,176.499,510.668,-1.420,12.071,-6.950,0.003,7.860,37.771,0.388,0.005,1.001,0.488,0.956,0.006,-0.094,0.023,-41.782,1.062,0.002,6.670,-0.002,0.020,0.003,-0.003,-0.079,0.004,1.357,0.045,0.292,0.000,1,1,1,1,0.002,0.007,0.047,0.303,-0.001,0.000,-0.004,-0.004,0.303,0.004,0.000,0
20260703_214628,case01_boxes_2layer,6,213.5,1.000,176.985,507.307,-1.419,15.899,-6.909,0.002,7.903,37.791,0.403,-0.013,0.428,0.056,0.585,-0.013,-0.006,0.023,-41.328,0.882,0.002,4.543,-0.002,0.013,0.002,0.006,-0.064,-0.015,0.666,0.022,0.282,0.000,1,1,1,1,-0.002,-0.006,0.035,-0.243,0.002,0.002,-0.003,-0.003,0.243,0.003,0.000,0
20260703_214628,case01_boxes_2layer,6,213.5,1.000,177.448,504.102,-1.419,19.577,-6.917,0.000,7.945,37.922,-0.075,-0.015,0.418,0.364,0.218,-0.015,0.031,0.023,-41.076,0.373,-0.003,2.517,-0.001,0.007,0.000,0.011,-0.065,-0.013,0.125,0.004,0.276,0.000,1,1,1,1,-0.002,-0.006,0.034,-0.241,0.003,0.003,-0.002,-0.002,0.241,0.003,0.000,0
20260703_214628,case01_boxes_2layer,6,213.5,1.000,177.941,500.676,-1.419,23.510,-6.944,0.000,7.962,38.032,-0.274,-0.008,0.169,0.307,-0.096,-0.008,0.032,0.023,-40.996,0.006,-0.007,0.802,0.000,0.000,0.000,0.006,-0.069,-0.007,-0.432,-0.015,0.269,0.000,1,1,1,1,-0.002,-0.006,0.033,-0.241,0.005,0.005,-0.001,-0.001,0.241,0.005,0.000,0
20260703_214628,case01_boxes_2layer,6,213.5,1.000,178.416,497.366,-1.419,27.292,-7.014,0.000,7.980,38.248,-0.700,0.003,0.184,0.598,-0.406,0.003,0.025,0.022,-41.098,-0.062,-0.008,-1.023,0.000,-0.007,0.000,0.002,-0.073,0.006,-0.990,-0.033,0.269,0.000,1,1,1,1,0.002,0.006,0.043,0.291,0.007,0.007,-0.001,-0.001,0.291,0.007,0.000,0
20260703_214628,case01_boxes_2layer,6,213.5,1.000,178.898,493.971,-1.419,31.128,-7.081,0.001,7.941,38.304,-0.672,0.008,-0.388,0.153,-0.761,0.008,0.038,0.021,-41.388,0.123,-0.005,-2.901,0.000,-0.014,0.001,-0.006,-0.070,0.007,-1.626,-0.051,0.264,0.000,1,1,1,1,0.002,0.006,0.042,0.289,0.010,0.010,0.000,0.000,0.289,0.010,0.000,0
20260703_214628,case01_boxes_2layer,6,213.5,1.000,179.372,490.604,-1.418,34.863,-7.173,0.001,7.871,38.338,-0.915,0.006,-0.699,0.090,-1.148,0.008,0.073,0.021,-41.867,0.355,-0.004,-4.789,-0.001,-0.022,0.001,-0.005,-0.075,0.006,-2.213,-0.074,0.260,0.000,1,1,1,1,0.002,0.006,0.042,0.286,0.011,0.011,0.001,0.001,0.286,0.011,0.000,0
20260703_214628,case01_boxes_2layer,6,213.5,1.000,179.851,487.142,-1.418,38.605,-7.293,0.001,7.765,38.350,-1.200,0.002,-1.064,0.028,-1.604,0.006,0.124,0.021,-42.571,0.502,-0.003,-7.032,-0.001,-0.030,0.002,-0.002,-0.085,0.002,-3.061,-0.096,0.256,0.000,1,1,1,1,0.002,0.006,0.041,0.283,0.015,0.015,0.002,0.002,0.283,0.015,0.000,0
20260703_214628,case01_boxes_2layer,6,213.5,1.000,180.341,483.539,-1.417,42.370,-7.415,0.001,7.594,38.208,-1.218,-0.003,-1.710,-0.402,-2.060,0.004,0.173,0.020,-43.520,0.499,-0.002,-9.498,-0.001,-0.038,0.001,-0.002,-0.077,-0.006,-3.830,-0.129,0.247,0.000,1,1,1,1,-0.002,-0.006,0.029,-0.236,0.017,0.018,0.004,0.004,0.236,0.018,0.000,0
20260703_214628,case01_boxes_2layer,6,213.5,1.000,180.817,479.958,-1.417,45.943,-7.626,0.001,7.420,38.304,-2.108,0.001,-1.734,0.253,-2.718,0.012,0.222,0.020,-44.742,0.486,-0.008,-12.212,-0.001,-0.052,0.002,0.002,-0.138,0.005,-4.951,-0.166,0.249,0.000,1,1,1,1,0.002,0.005,0.040,0.278,0.021,0.022,0.005,0.005,0.278,0.022,0.000,0
20260703_214628,case01_boxes_2layer,6,213.5,1.000,181.293,476.279,-1.416,49.402,-7.857,0.002,7.146,38.234,-2.311,0.004,-2.742,-0.220,-3.579,0.022,0.281,0.019,-46.354,0.588,-0.009,-16.128,-0.002,-0.068,0.002,-0.004,-0.157,0.003,-6.410,-0.215,0.246,0.000,1,1,1,1,0.002,0.005,0.040,0.276,0.026,0.028,0.007,0.007,0.276,0.028,0.041,0
20260703_214628,case01_boxes_2layer,6,213.5,1.000,181.772,472.460,-1.415,52.728,-8.125,0.002,6.793,38.128,-2.684,0.004,-3.528,-0.333,-4.420,0.031,0.354,0.018,-48.430,0.736,-0.008,-20.755,-0.002,-0.084,0.002,-0.003,-0.163,0.002,-7.596,-0.254,0.243,0.000,1,1,1,1,0.002,0.005,0.039,0.273,0.026,0.029,0.009,0.009,0.273,0.029,0.099,0
20260703_214628,case01_boxes_2layer,6,213.5,1.000,182.125,469.558,-1.414,55.058,-8.329,0.002,6.429,37.878,-2.036,0.003,-3.642,-0.761,-4.103,0.032,0.417,0.017,-50.278,0.628,-0.008,-18.485,-0.003,-0.101,0.002,-0.011,-0.170,0.001,-9.524,-0.319,0.237,0.000,1,1,1,1,-0.002,-0.005,0.026,-0.229,0.035,0.040,0.011,0.010,0.229,0.040,0.077,0
20260703_214628,case01_boxes_2layer,6,213.5,1.000,182.496,466.409,-1.413,57.357,-8.632,0.004,5.983,37.811,-3.035,0.011,-4.458,-0.288,-5.385,0.059,0.510,0.015,-52.694,0.924,-0.021,-24.157,-0.004,-0.127,0.003,-0.009,-0.260,0.011,-11.796,-0.394,0.241,0.000,1,1,1,1,0.003,0.005,0.039,0.269,0.041,0.049,0.013,0.012,0.269,0.049,0.167,0
20260703_214628,case01_boxes_2layer,6,213.5,1.000,182.853,463.276,-1.412,59.388,-8.912,0.005,5.429,37.567,-2.795,0.009,-5.541,-0.831,-6.149,0.076,0.622,0.013,-55.532,1.122,-0.017,-28.378,-0.005,-0.152,0.003,-0.008,-0.247,0.003,-14.087,-0.469,0.241,0.000,1,1,1,1,0.003,0.005,0.039,0.266,0.046,0.058,0.016,0.015,0.266,0.058,0.220,0
20260703_214628,case01_boxes_2layer,6,213.5,1.000,183.216,459.992,-1.410,61.215,-9.202,0.005,4.686,37.175,-2.906,0.009,-7.437,-1.333,-7.872,0.114,0.764,0.010,-59.051,1.426,-0.032,-35.191,-0.007,-0.189,0.004,-0.019,-0.374,0.006,-17.980,-0.597,0.246,0.000,1,1,1,1,0.003,0.004,0.040,0.265,0.060,0.078,0.019,0.018,0.265,0.078,0.341,0
20260703_214628,case01_boxes_2layer,6,213.5,1.000,183.700,455.459,-1.408,63.159,-9.498,0.007,3.367,36.278,-2.957,0.017,-13.187,-2.881,-13.202,0.249,1.009,0.003,-65.053,2.451,-0.067,-60.020,-0.009,-0.245,0.004,-0.022,-0.556,-0.005,-23.228,-0.767,0.254,0.000,1,1,1,1,-0.002,-0.005,0.023,-0.218,0.067,0.099,0.025,0.023,0.218,0.099,0.350,0
20260703_214628,case01_boxes_2layer,6,213.5,1.000,184.181,450.858,-1.404,64.370,-9.587,0.008,1.682,35.041,-0.890,0.005,-16.848,-4.158,-16.346,0.375,1.296,-0.008,-72.706,2.870,-0.117,-76.536,-0.011,-0.312,0.002,-0.017,-0.674,-0.011,-30.178,-0.988,0.287,0.000,1,1,1,1,-0.003,-0.006,0.017,-0.218,0.077,0.130,0.031,0.028,0.218,0.130,0.350,0
20260703_214628,case01_boxes_2layer,6,213.5,1.000,184.661,446.278,-1.401,64.745,-9.453,0.005,0.014,34.029,1.345,-0.025,-16.680,-3.720,-16.310,0.409,1.523,-0.010,-81.766,2.269,-0.020,-90.600,-0.004,-0.335,0.001,0.068,-0.234,-0.018,-31.166,-1.000,0.341,0.000,1,1,1,1,-0.002,-0.003,-0.002,-0.216,0.050,0.113,0.035,0.031,0.216,0.113,0.350,0
20260703_214628,case01_boxes_2layer,6,213.5,1.000,185.004,443.061,-1.401,64.544,-9.278,-0.001,-1.074,33.622,1.749,-0.065,-10.879,-2.059,-10.822,0.225,1.534,-0.003,-88.362,0.103,0.073,-65.960,0.003,-0.334,0.000,0.065,0.011,-0.009,-31.247,-1.000,0.386,0.000,1,1,1,1,-0.002,-0.004,-0.006,-0.212,0.047,0.111,0.035,0.031,0.212,0.111,0.350,0
20260703_214628,case01_boxes_2layer,6,213.5,1.000,185.371,439.708,-1.402,63.920,-9.020,-0.007,-2.210,33.433,2.576,-0.059,-11.363,-1.500,-11.552,0.229,1.426,-0.005,-95.378,-1.079,-0.020,-70.152,0.007,-0.333,0.001,0.043,0.016,0.008,-31.340,-1.000,0.416,0.000,1,1,1,1,0.003,0.004,0.100,0.300,0.044,0.109,0.034,0.030,0.300,0.109,0.350,0
20260703_214628,case01_boxes_2layer,6,213.5,1.000,185.735,436.516,-1.405,62.906,-8.623,-0.007,-3.258,33.183,3.975,0.000,-10.481,-1.653,-11.084,0.246,1.270,-0.011,-102.288,-1.558,-0.058,-69.105,0.007,-0.331,0.002,0.003,0.015,0.011,-31.391,-1.000,0.434,0.000,1,1,1,1,0.003,0.005,0.102,0.312,0.043,0.108,0.033,0.029,0.312,0.108,0.350,0
20260703_214628,case01_boxes_2layer,6,213.5,1.000,186.094,433.531,-1.407,61.543,-8.121,-0.004,-4.240,32.980,5.018,0.034,-9.820,-1.531,-10.918,0.252,1.138,-0.010,-109.082,-1.317,0.003,-67.940,0.005,-0.330,0.002,-0.026,0.010,0.004,-31.432,-0.960,0.448,0.000,1,1,1,1,0.003,0.005,0.103,0.319,0.041,0.107,0.032,0.028,0.319,0.107,0.350,0
20260703_214628,case01_boxes_2layer,6,213.5,1.000,186.456,430.667,-1.407,59.857,-7.907,-0.002,-4.885,33.458,2.142,0.014,-6.451,0.841,-6.744,0.132,1.003,0.008,-115.477,-1.357,0.185,-63.949,0.009,-0.264,0.006,0.044,0.658,0.044,-19.723,-0.631,0.434,0.000,1,1,1,1,0.003,0.006,0.080,0.315,-0.046,-0.003,0.033,0.029,0.315,0.046,0.262,0
20260703_214628,case01_boxes_2layer,6,213.5,1.000,186.815,427.825,-1.410,58.051,-8.022,-0.014,-5.119,34.258,-1.152,-0.121,-2.343,2.158,-1.471,-0.103,0.653,0.037,-119.580,-3.498,0.294,-41.026,0.018,-0.143,0.011,0.092,1.216,0.049,-9.225,-0.296,0.406,0.000,1,1,1,1,0.001,0.007,0.064,0.320,-0.034,-0.022,0.024,0.023,0.320,0.034,0.000,0
20260703_214628,case01_boxes_2layer,6,213.5,1.000,187.175,424.942,-1.416,56.165,-8.049,-0.020,-5.347,34.787,-0.273,-0.058,-2.273,1.431,-1.788,-0.051,0.213,0.034,-121.810,-4.397,-0.032,-22.299,0.017,-0.084,0.010,-0.015,0.589,-0.015,-6.549,-0.213,0.388,0.000,1,1,1,1,0.001,0.008,0.061,0.334,0.002,0.006,0.013,0.013,0.334,0.013,0.000,0
20260703_214628,case01_boxes_2layer,6,213.5,1.000,187.530,422.100,-1.421,54.223,-8.009,-0.009,-5.603,35.188,0.402,0.113,-2.566,1.073,-2.365,0.110,-0.085,0.022,-123.329,-2.978,-0.126,-15.190,0.008,-0.071,0.005,-0.092,0.128,-0.050,-6.650,-0.204,0.375,0.000,1,1,1,1,0.002,0.009,0.060,0.338,0.018,0.021,0.008,0.008,0.338,0.021,0.000,0
20260703_214628,case01_boxes_2layer,6,213.5,1.000,187.892,419.225,-1.422,52.154,-7.949,0.003,-5.849,35.530,0.594,0.123,-2.458,0.913,-2.358,0.117,-0.155,0.021,-124.772,-0.704,-0.005,-14.438,-0.002,-0.070,-0.001,-0.095,0.012,-0.056,-6.669,-0.205,0.363,0.000,1,1,1,1,0.002,0.009,0.058,0.333,0.020,0.023,0.007,0.007,0.333,0.023,0.000,0
20260703_214628,case01_boxes_2layer,6,213.5,1.000,188.256,416.355,-1.420,49.984,-7.875,0.009,-6.087,35.832,0.743,0.054,-2.380,0.807,-2.359,0.053,-0.031,0.028,-126.223,1.242,0.066,-14.509,-0.008,-0.070,-0.005,-0.056,-0.001,-0.042,-6.562,-0.201,0.352,0.000,1,1,1,1,0.002,0.008,0.056,0.322,0.019,0.022,0.007,0.007,0.322,0.022,0.000,0
20260703_214628,case01_boxes_2layer,6,213.5,1.000,188.615,413.552,-1.417,47.759,-7.789,0.009,-6.318,36.104,0.860,-0.001,-2.303,0.726,-2.349,0.007,0.176,0.030,-127.645,2.074,0.026,-14.219,-0.008,-0.069,-0.006,-0.007,0.013,-0.011,-6.202,-0.204,0.343,0.000,1,1,1,1,0.002,0.007,0.054,0.310,0.016,0.019,0.007,0.007,0.310,0.019,0.000,0
20260703_214628,case01_boxes_2layer,6,213.5,1.000,188.974,410.784,-1.414,45.457,-7.696,0.005,-6.537,36.352,0.930,-0.033,-2.195,0.660,-2.291,-0.018,0.356,0.029,-129.023,1.801,-0.014,-13.776,-0.005,-0.066,-0.004,0.029,0.030,0.019,-5.640,-0.186,0.334,0.000,1,1,1,1,0.002,0.006,0.052,0.300,0.012,0.014,0.008,0.007,0.300,0.014,0.000,0
20260703_214628,case01_boxes_2layer,6,213.5,1.000,189.336,408.021,-1.413,43.051,-7.590,0.001,-6.753,36.572,1.064,-0.045,-2.157,0.586,-2.333,-0.026,0.442,0.027,-130.350,0.851,-0.019,-13.268,-0.001,-0.064,-0.001,0.040,0.016,0.032,-5.917,-0.196,0.326,0.000,1,1,1,1,0.002,0.006,0.050,0.295,0.019,0.021,0.007,0.007,0.295,0.021,0.000,0
20260703_214628,case01_boxes_2layer,6,213.5,1.000,189.686,405.395,-1.414,40.659,-7.466,-0.003,-6.916,36.637,1.238,-0.036,-1.633,0.158,-2.043,-0.020,0.426,0.026,-131.596,-0.160,-0.015,-12.463,0.003,-0.059,0.002,0.039,0.053,0.027,-5.187,-0.156,0.313,0.000,1,1,1,1,-0.003,-0.006,0.036,-0.234,0.013,0.015,0.008,0.007,0.234,0.015,0.000,0
20260703_214628,case01_boxes_2layer,6,213.5,1.000,190.056,402.644,-1.415,38.058,-7.410,-0.005,-7.109,36.968,0.558,-0.026,-1.931,0.902,-1.797,-0.016,0.323,0.024,-132.765,-1.026,-0.010,-11.692,0.004,-0.052,0.004,0.018,0.073,0.024,-4.299,-0.142,0.311,0.000,1,1,1,1,0.002,0.006,0.049,0.297,0.009,0.011,0.006,0.006,0.297,0.011,0.000,0
20260703_214628,case01_boxes_2layer,6,213.5,1.000,190.414,400.017,-1.417,35.492,-7.330,-0.005,-7.259,37.138,0.800,0.002,-1.499,0.459,-1.636,0.007,0.197,0.023,-133.757,-1.259,-0.011,-9.921,0.004,-0.046,0.004,-0.002,0.052,-0.001,-4.038,-0.134,0.305,0.000,1,1,1,1,0.002,0.006,0.048,0.300,0.011,0.012,0.005,0.005,0.300,0.012,0.000,0
20260703_214628,case01_boxes_2layer,6,213.5,1.000,190.772,397.409,-1.418,32.866,-7.250,-0.003,-7.398,37.289,0.801,0.022,-1.387,0.406,-1.549,0.024,0.099,0.023,-134.671,-0.979,-0.008,-9.138,0.002,-0.044,0.003,-0.018,0.029,-0.016,-3.899,-0.129,0.300,0.000,1,1,1,1,0.002,0.006,0.048,0.302,0.013,0.014,0.005,0.005,0.302,0.014,0.000,0
20260703_214628,case01_boxes_2layer,6,213.5,1.000,191.135,394.801,-1.419,30.163,-7.169,0.000,-7.527,37.422,0.807,0.026,-1.295,0.359,-1.483,0.027,0.057,0.023,-135.545,-0.417,-0.001,-8.741,0.000,-0.042,0.001,-0.021,0.018,-0.020,-3.820,-0.116,0.295,0.000,1,1,1,1,0.002,0.006,0.047,0.300,0.013,0.014,0.004,0.004,0.300,0.014,0.000,0
20260703_214628,case01_boxes_2layer,6,213.5,1.000,191.493,392.256,-1.418,27.449,-7.087,0.002,-7.649,37.541,0.822,0.019,-1.222,0.318,-1.438,0.021,0.071,0.023,-136.379,0.138,0.002,-8.340,-0.001,-0.040,-0.001,-0.015,0.014,-0.016,-3.432,-0.114,0.290,0.000,1,1,1,1,0.002,0.006,0.046,0.297,0.009,0.010,0.004,0.004,0.297,0.010,0.000,0
20260703_214628,case01_boxes_2layer,6,213.5,1.000,191.853,389.732,-1.418,24.684,-7.000,0.002,-7.768,37.645,0.869,0.007,-1.187,0.280,-1.444,0.010,0.117,0.023,-137.194,0.458,0.002,-8.150,-0.002,-0.040,-0.002,-0.006,0.007,-0.007,-3.379,-0.112,0.286,0.000,1,1,1,1,0.002,0.006,0.046,0.294,0.009,0.010,0.004,0.004,0.294,0.010,0.000,0
20260703_214628,case01_boxes_2layer,6,213.5,1.000,192.214,387.225,-1.417,21.860,-6.912,0.002,-7.881,37.738,0.883,-0.005,-1.130,0.249,-1.412,0.000,0.167,0.023,-137.998,0.497,0.000,-8.036,-0.002,-0.039,-0.001,0.004,0.011,0.003,-3.323,-0.111,0.283,0.000,1,1,1,1,0.002,0.006,0.045,0.290,0.010,0.010,0.004,0.004,0.290,0.010,0.000,0
20260703_214628,case01_boxes_2layer,6,213.5,1.000,192.577,384.741,-1.417,18.984,-6.819,0.001,-7.991,37.820,0.926,-0.011,-1.103,0.220,-1.423,-0.006,0.198,0.023,-138.786,0.310,-0.002,-7.887,-0.001,-0.038,0.000,0.008,0.006,0.009,-3.285,-0.109,0.279,0.000,1,1,1,1,0.002,0.006,0.044,0.288,0.010,0.011,0.004,0.004,0.288,0.011,0.000,0
20260703_214628,case01_boxes_2layer,6,213.5,1.000,192.934,382.328,-1.417,16.114,-6.724,0.000,-8.098,37.893,0.953,-0.010,-1.066,0.193,-1.417,-0.005,0.203,0.022,-139.554,0.051,-0.005,-7.672,0.000,-0.038,0.000,0.008,0.004,0.009,-3.245,-0.108,0.277,0.000,1,1,1,1,0.002,0.006,0.044,0.287,0.010,0.010,0.004,0.004,0.287,0.010,0.000,0
20260703_214628,case01_boxes_2layer,6,213.5,1.000,193.295,379.928,-1.417,13.180,-6.627,-0.001,-8.201,37.957,0.969,-0.006,-1.026,0.170,-1.401,-0.002,0.187,0.022,-140.320,-0.156,-0.004,-7.659,0.001,-0.037,0.001,0.005,0.004,0.006,-3.208,-0.107,0.274,0.000,1,1,1,1,0.002,0.006,0.043,0.287,0.010,0.010,0.004,0.004,0.287,0.010,0.000,0
20260703_214628,case01_boxes_2layer,6,213.5,1.000,193.652,377.587,-1.417,10.240,-6.528,-0.001,-8.299,38.014,0.987,-0.001,-0.988,0.149,-1.389,0.003,0.163,0.021,-141.071,-0.244,-0.004,-7.511,0.001,-0.037,0.001,0.001,0.003,0.001,-3.188,-0.106,0.272,0.000,1,1,1,1,0.002,0.006,0.043,0.287,0.010,0.010,0.004,0.004,0.287,0.010,0.000,0
20260703_214628,case01_boxes_2layer,6,213.5,1.000,194.009,375.279,-1.418,7.263,-6.409,-0.001,-8.362,37.927,1.196,0.004,-0.623,-0.250,-1.325,0.007,0.141,0.021,-141.813,-0.218,-0.002,-7.427,0.001,-0.036,0.001,0.002,0.012,-0.006,-3.169,-0.106,0.264,0.000,1,1,1,1,-0.002,-0.006,0.031,-0.238,0.009,0.010,0.004,0.004,0.238,0.010,0.000,0
20260703_214628,case01_boxes_2layer,6,213.5,1.000,194.376,372.943,-1.418,4.167,-6.324,0.000,-8.488,38.106,0.847,0.006,-1.264,0.489,-1.440,0.009,0.131,0.021,-142.581,-0.104,-0.001,-7.677,0.000,-0.037,0.000,-0.009,-0.014,-0.002,-3.285,-0.110,0.267,0.000,1,1,1,1,0.002,0.006,0.043,0.287,0.011,0.012,0.004,0.004,0.287,0.012,0.000,0
20260703_214628,case01_boxes_2layer,6,213.5,1.000,194.730,370.734,-1.418,1.156,-6.197,0.000,-8.548,38.006,1.277,0.005,-0.594,-0.286,-1.379,0.008,0.134,0.021,-143.331,0.033,-0.002,-7.498,0.000,-0.037,0.000,0.001,0.003,-0.008,-3.321,-0.111,0.260,0.000,1,1,1,1,-0.002,-0.006,0.031,-0.238,0.011,0.011,0.004,0.004,0.238,0.011,0.000,0
20260703_214628,case01_boxes_2layer,6,213.5,1.000,195.086,368.544,-1.418,-1.913,-6.082,0.001,-8.640,38.037,1.141,0.003,-0.920,0.076,-1.464,0.006,0.147,0.021,-144.102,0.128,0.000,-7.715,0.000,-0.038,-0.001,-0.002,-0.009,-0.003,-3.449,-0.115,0.259,0.000,1,1,1,1,-0.002,-0.006,0.031,-0.237,0.012,0.013,0.004,0.004,0.237,0.013,0.000,0
20260703_214628,case01_boxes_2layer,6,213.5,1.000,195.455,366.323,-1.417,-5.123,-5.979,0.001,-8.765,38.197,1.032,0.000,-1.255,0.434,-1.565,0.004,0.164,0.021,-144.921,0.170,0.000,-8.191,-0.001,-0.040,-0.001,-0.004,-0.021,0.002,-3.692,-0.113,0.263,0.000,1,1,1,1,0.002,0.006,0.042,0.283,0.015,0.016,0.004,0.004,0.283,0.016,0.000,0
20260703_214628,case01_boxes_2layer,6,213.5,1.000,196.058,362.794,-1.417,-10.446,-5.760,0.000,-8.920,38.226,2.191,-0.003,-1.551,0.076,-2.684,0.006,0.187,0.021,-146.327,0.231,-0.002,-14.059,0.000,-0.042,0.000,0.002,-0.026,0.002,-3.782,-0.126,0.260,0.000,1,1,1,1,0.002,0.005,0.042,0.282,0.013,0.014,0.005,0.005,0.282,0.014,0.000,0
20260703_214628,case01_boxes_2layer,6,213.5,1.000,196.528,360.141,-1.417,-14.660,-5.555,0.000,-9.010,38.106,2.052,-0.002,-0.903,-0.341,-2.216,0.006,0.197,0.020,-147.495,0.103,-0.003,-11.680,0.000,-0.044,0.000,0.006,-0.010,0.000,-3.869,-0.121,0.253,0.000,1,1,1,1,-0.002,-0.006,0.030,-0.235,0.012,0.013,0.005,0.005,0.235,0.013,0.000,0
20260703_214628,case01_boxes_2layer,6,213.5,1.000,197.009,357.516,-1.417,-19.033,-5.347,0.000,-9.137,38.111,2.082,-0.001,-1.264,0.000,-2.436,0.007,0.200,0.020,-148.733,0.027,-0.002,-12.372,0.000,-0.047,0.000,0.000,-0.035,-0.001,-4.402,-0.147,0.252,0.000,1,1,1,1,-0.002,-0.006,0.030,-0.235,0.017,0.018,0.005,0.005,0.235,0.018,0.000,0
20260703_214628,case01_boxes_2layer,6,213.5,1.000,197.498,354.964,-1.417,-23.543,-5.110,0.001,-9.309,38.231,2.364,0.007,-1.725,0.320,-2.909,0.018,0.217,0.020,-150.163,0.177,-0.005,-14.304,-0.001,-0.055,-0.001,-0.008,-0.080,-0.003,-5.085,-0.170,0.256,0.000,1,1,1,1,0.002,0.005,0.041,0.280,0.020,0.021,0.006,0.006,0.280,0.021,0.000,0
20260703_214628,case01_boxes_2layer,6,213.5,1.000,197.975,352.601,-1.416,-28.016,-4.824,0.001,-9.453,38.206,2.861,0.004,-1.436,-0.089,-3.200,0.018,0.251,0.020,-151.754,0.338,-0.002,-15.910,-0.001,-0.062,-0.001,-0.002,-0.070,-0.004,-5.420,-0.181,0.254,0.000,1,1,1,1,0.002,0.005,0.041,0.278,0.017,0.019,0.007,0.007,0.278,0.019,0.014,0
20260703_214628,case01_boxes_2layer,6,213.5,1.000,198.455,350.371,-1.416,-32.582,-4.506,0.001,-9.598,38.170,3.177,-0.001,-1.446,-0.121,-3.489,0.017,0.292,0.019,-153.541,0.404,-0.001,-17.869,-0.001,-0.068,-0.001,0.001,-0.057,0.001,-6.130,-0.205,0.253,0.000,1,1,1,1,0.002,0.005,0.040,0.277,0.022,0.024,0.008,0.008,0.277,0.024,0.034,0
20260703_214628,case01_boxes_2layer,6,213.5,1.000,198.939,348.295,-1.415,-37.258,-4.105,0.001,-9.755,38.100,4.012,0.002,-1.571,-0.228,-4.302,0.027,0.336,0.019,-155.580,0.442,-0.007,-20.396,-0.001,-0.081,-0.002,-0.002,-0.137,-0.007,-7.591,-0.254,0.252,0.000,1,1,1,1,0.002,0.005,0.040,0.275,0.029,0.032,0.009,0.008,0.275,0.032,0.091,0
20260703_214628,case01_boxes_2layer,6,213.5,1.000,199.416,346.463,-1.415,-41.940,-3.620,0.002,-9.914,37.994,4.854,0.008,-1.590,-0.342,-5.096,0.044,0.402,0.018,-158.020,0.657,-0.011,-24.396,-0.001,-0.097,-0.002,-0.002,-0.158,-0.006,-8.802,-0.294,0.250,0.000,1,1,1,1,0.002,0.005,0.040,0.273,0.029,0.034,0.011,0.010,0.273,0.034,0.147,0
20260703_214628,case01_boxes_2layer,6,213.5,1.000,199.896,344.889,-1.414,-46.722,-2.982,0.003,-10.070,37.809,6.381,0.010,-1.565,-0.595,-6.542,0.066,0.496,0.016,-161.025,0.948,-0.015,-30.046,-0.002,-0.123,-0.004,-0.003,-0.259,-0.015,-11.143,-0.371,0.250,0.000,1,1,1,1,0.002,0.005,0.040,0.270,0.035,0.043,0.013,0.013,0.270,0.043,0.248,0
20260703_214628,case01_boxes_2layer,6,213.5,1.000,200.371,343.673,-1.412,-51.536,-2.139,0.004,-10.193,37.493,8.425,0.014,-1.223,-1.026,-8.450,0.108,0.636,0.013,-164.819,1.392,-0.030,-37.942,-0.002,-0.160,-0.006,-0.002,-0.364,-0.021,-14.804,-0.493,0.251,0.000,1,1,1,1,0.003,0.005,0.040,0.266,0.047,0.061,0.016,0.016,0.266,0.061,0.350,0
20260703_214628,case01_boxes_2layer,6,213.5,1.000,200.858,342.920,-1.410,-56.497,-0.964,0.007,-10.200,36.883,11.751,0.023,-0.072,-1.969,-11.583,0.196,0.856,0.007,-170.002,2.202,-0.063,-51.826,-0.002,-0.216,-0.010,0.001,-0.569,-0.035,-20.818,-0.690,0.257,0.000,1,1,1,1,0.003,0.004,0.042,0.264,0.069,0.093,0.021,0.020,0.264,0.093,0.350,0
20260703_214628,case01_boxes_2layer,6,213.5,1.000,201.338,342.851,-1.406,-61.325,0.609,0.009,-9.914,35.759,15.736,0.027,2.855,-3.676,-15.561,0.347,1.176,-0.005,-176.993,3.207,-0.119,-69.918,0.000,-0.291,-0.013,0.011,-0.750,-0.035,-28.169,-0.925,0.292,0.000,1,1,1,1,0.003,0.004,0.050,0.266,0.079,0.124,0.028,0.026,0.266,0.124,0.350,0
20260703_214628,case01_boxes_2layer,6,213.5,1.000,201.819,343.565,-1.402,-65.943,2.221,0.008,-9.380,34.701,16.116,-0.015,5.344,-3.735,-16.558,0.414,1.483,-0.007,174.363,3.066,-0.014,-86.439,0.000,-0.331,-0.008,0.008,-0.396,0.049,-31.080,-1.000,0.343,0.000,1,1,1,1,0.003,0.003,0.068,0.269,0.061,0.121,0.034,0.030,0.269,0.121,0.350,0
20260703_214628,case01_boxes_2layer,6,213.5,1.000,202.421,345.481,-1.401,-71.325,3.937,-0.005,-8.593,34.027,17.157,-0.127,7.867,-2.496,-18.706,0.371,1.525,0.002,162.965,0.421,0.082,-113.977,-0.002,-0.314,0.007,-0.024,0.168,0.147,-28.147,-0.863,0.374,0.000,1,1,1,1,-0.002,-0.003,0.006,-0.210,0.030,0.086,0.035,0.031,0.210,0.086,0.350,0
20260703_214628,case01_boxes_2layer,6,213.5,1.000,202.888,347.583,-1.405,-75.211,4.944,-0.013,-8.088,34.124,10.070,-0.082,5.055,-0.342,-11.262,0.158,1.218,0.004,155.086,-3.069,0.023,-78.788,-0.006,-0.276,0.013,-0.037,0.384,0.067,-24.597,-0.749,0.378,0.000,1,1,1,1,-0.003,-0.004,0.024,-0.223,0.026,0.070,0.031,0.028,0.223,0.070,0.350,0
20260703_214628,case01_boxes_2layer,6,213.5,1.000,203.374,350.211,-1.410,-79.024,5.774,-0.012,-7.701,34.653,8.306,0.009,3.861,1.096,-9.093,0.133,0.780,0.008,148.197,-4.382,0.042,-68.898,-0.009,-0.220,0.013,-0.029,0.556,-0.005,-18.470,-0.600,0.376,0.000,1,1,1,1,0.002,0.006,0.061,0.311,0.008,0.036,0.026,0.024,0.311,0.036,0.350,0
20260703_214628,case01_boxes_2layer,6,213.5,1.000,203.862,353.204,-1.414,-82.661,6.433,-0.006,-7.243,34.875,6.592,0.061,4.586,0.358,-8.022,0.122,0.440,0.016,142.617,-3.395,0.079,-55.790,-0.004,-0.185,0.006,0.042,0.356,-0.068,-15.852,-0.517,0.362,0.000,1,1,1,1,-0.003,-0.006,0.037,-0.242,0.015,0.035,0.022,0.020,0.242,0.035,0.350,0
20260703_214628,case01_boxes_2layer,6,213.5,1.000,204.338,356.406,-1.415,-86.013,6.977,0.001,-6.928,35.395,5.431,0.066,3.153,1.289,-6.146,0.103,0.338,0.022,138.019,-1.023,0.059,-45.983,-0.001,-0.152,0.000,0.035,0.331,-0.058,-12.575,-0.410,0.358,0.000,1,1,1,1,0.002,0.007,0.057,0.314,0.011,0.024,0.019,0.018,0.314,0.024,0.220,0
20260703_214628,case01_boxes_2layer,6,213.5,1.000,204.818,359.861,-1.415,-89.244,7.411,0.002,-6.616,35.766,4.347,0.013,3.112,0.939,-5.262,0.047,0.364,0.027,134.286,0.258,0.050,-37.333,0.001,-0.123,-0.002,0.021,0.287,-0.018,-10.343,-0.339,0.347,0.000,1,1,1,1,0.002,0.006,0.055,0.308,0.014,0.023,0.015,0.015,0.308,0.023,0.158,0
20260703_214628,case01_boxes_2layer,6,213.5,1.000,205.298,363.515,-1.414,-92.334,7.797,0.001,-6.297,36.080,3.859,-0.010,3.195,0.802,-4.946,0.027,0.416,0.026,131.167,0.524,-0.011,-31.191,0.001,-0.109,-0.001,0.001,0.142,0.003,-9.218,-0.303,0.338,0.000,1,1,1,1,0.002,0.006,0.053,0.302,0.015,0.022,0.013,0.012,0.302,0.022,0.136,0
20260703_214628,case01_boxes_2layer,6,213.5,1.000,205.774,367.294,-1.414,-95.244,8.112,-0.001,-6.030,36.387,3.145,-0.018,2.667,0.805,-4.044,0.013,0.427,0.025,128.446,0.106,-0.011,-27.206,-0.001,-0.090,0.001,-0.025,0.184,0.019,-7.551,-0.249,0.329,0.000,1,1,1,1,0.002,0.006,0.051,0.298,0.013,0.018,0.012,0.011,0.298,0.018,0.073,0
20260703_214628,case01_boxes_2layer,6,213.5,1.000,206.260,371.297,-1.415,-98.105,8.373,-0.003,-5.800,36.670,2.617,-0.026,2.301,0.753,-3.403,-0.005,0.350,0.025,126.190,-0.774,0.002,-22.558,-0.003,-0.074,0.002,-0.019,0.159,0.014,-6.472,-0.197,0.320,0.000,1,1,1,1,0.002,0.006,0.050,0.299,0.016,0.019,0.009,0.009,0.299,0.019,0.028,0
20260703_214628,case01_boxes_2layer,6,213.5,1.000,206.734,375.323,-1.416,-100.797,8.597,-0.003,-5.591,36.918,2.235,0.003,2.092,0.666,-2.988,0.016,0.246,0.023,124.334,-1.040,-0.015,-18.562,-0.003,-0.064,0.002,0.001,0.104,-0.002,-5.241,-0.173,0.312,0.000,1,1,1,1,0.002,0.006,0.049,0.300,0.009,0.011,0.008,0.008,0.300,0.011,0.000,0
20260703_214628,case01_boxes_2layer,6,213.5,1.000,207.218,379.525,-1.417,-103.445,8.790,-0.001,-5.399,37.137,1.935,0.017,1.923,0.590,-2.663,0.025,0.172,0.023,122.680,-0.741,-0.003,-16.538,-0.002,-0.057,0.001,0.014,0.074,-0.011,-5.015,-0.152,0.305,0.000,1,1,1,1,0.002,0.006,0.048,0.300,0.015,0.017,0.007,0.007,0.300,0.017,0.000,0
20260703_214628,case01_boxes_2layer,6,213.5,1.000,207.709,383.877,-1.417,-106.040,8.928,0.000,-5.200,37.197,1.378,0.014,1.981,0.153,-2.408,0.021,0.149,0.023,121.200,-0.222,0.002,-14.803,0.000,-0.049,0.000,0.017,0.073,-0.005,-4.438,-0.135,0.293,0.000,1,1,1,1,-0.003,-0.006,0.035,-0.241,0.013,0.015,0.006,0.006,0.241,0.015,0.000,0
20260703_214628,case01_boxes_2layer,6,213.5,1.000,208.178,388.103,-1.417,-108.438,9.110,0.001,-5.051,37.499,1.815,0.005,1.495,0.827,-2.202,0.012,0.162,0.023,119.929,0.125,0.000,-12.707,0.001,-0.047,-0.001,0.005,0.023,-0.009,-4.103,-0.136,0.293,0.000,1,1,1,1,0.002,0.006,0.046,0.294,0.012,0.013,0.005,0.005,0.294,0.013,0.000,0
20260703_214628,case01_boxes_2layer,6,213.5,1.000,208.646,392.391,-1.417,-110.758,9.202,0.000,-4.889,37.513,0.922,-0.003,1.620,0.029,-1.864,0.002,0.179,0.023,118.758,0.171,-0.002,-11.709,0.000,-0.040,0.000,-0.004,0.072,0.008,-3.492,-0.105,0.283,0.000,1,1,1,1,-0.003,-0.006,0.033,-0.238,0.010,0.011,0.005,0.005,0.238,0.011,0.000,0
20260703_214628,case01_boxes_2layer,6,213.5,1.000,209.005,395.721,-1.417,-112.500,9.285,-0.001,-4.794,37.617,0.826,-0.009,0.952,0.282,-1.229,-0.005,0.173,0.023,117.988,-0.062,0.000,-7.706,-0.001,-0.035,0.001,-0.008,0.052,0.004,-2.940,-0.098,0.280,0.000,1,1,1,1,-0.003,-0.006,0.033,-0.238,0.007,0.008,0.005,0.005,0.238,0.008,0.000,0
20260703_214628,case01_boxes_2layer,6,213.5,1.000,209.372,399.142,-1.417,-114.239,9.396,-0.001,-4.716,37.849,1.118,-0.005,0.777,0.638,-1.203,-0.001,0.152,0.023,117.290,-0.211,-0.005,-6.980,-0.001,-0.032,0.000,-0.007,0.024,-0.002,-2.872,-0.087,0.282,0.000,1,1,1,1,0.002,0.006,0.045,0.290,0.010,0.011,0.004,0.004,0.290,0.011,0.000,0
20260703_214628,case01_boxes_2layer,6,213.5,1.000,209.729,402.503,-1.418,-115.902,9.430,-0.001,-4.614,37.795,0.336,0.001,1.016,-0.156,-1.059,0.003,0.126,0.022,116.664,-0.256,-0.005,-6.253,-0.001,-0.029,0.001,0.002,0.030,0.005,-2.512,-0.084,0.274,0.000,1,1,1,1,-0.003,-0.006,0.033,-0.239,0.006,0.007,0.004,0.004,0.239,0.007,0.000,0
20260703_214628,case01_boxes_2layer,6,213.5,1.000,210.088,405.907,-1.418,-117.544,9.494,-0.001,-4.532,37.871,0.636,0.003,0.827,0.208,-1.023,0.005,0.104,0.022,116.075,-0.218,-0.002,-5.895,-0.001,-0.027,0.001,0.003,0.018,-0.002,-2.447,-0.082,0.272,0.000,1,1,1,1,-0.003,-0.006,0.033,-0.239,0.007,0.008,0.003,0.003,0.239,0.008,0.000,0
20260703_214628,case01_boxes_2layer,6,213.5,1.000,210.450,409.364,-1.418,-119.173,9.588,0.000,-4.468,38.079,0.940,0.004,0.639,0.573,-0.982,0.006,0.091,0.022,115.516,-0.132,-0.001,-5.593,0.000,-0.026,0.000,0.002,0.010,-0.007,-2.196,-0.073,0.275,0.000,1,1,1,1,0.002,0.006,0.044,0.290,0.006,0.006,0.003,0.003,0.290,0.006,0.000,0
20260703_214628,case01_boxes_2layer,6,213.5,1.000,210.810,412.819,-1.418,-120.763,9.641,0.000,-4.394,38.142,0.531,0.003,0.734,0.172,-0.889,0.004,0.086,0.022,114.996,-0.047,-0.001,-5.198,0.000,-0.025,0.000,0.003,0.018,-0.001,-2.118,-0.071,0.273,0.000,1,1,1,1,0.002,0.006,0.043,0.289,0.007,0.007,0.003,0.002,0.289,0.007,0.000,0
20260703_214628,case01_boxes_2layer,6,213.5,1.000,211.171,416.300,-1.418,-122.332,9.690,0.000,-4.325,38.200,0.489,0.001,0.695,0.156,-0.835,0.002,0.087,0.022,114.510,0.004,-0.001,-4.855,0.000,-0.023,0.000,0.001,0.016,-0.001,-2.044,-0.068,0.271,0.000,1,1,1,1,0.002,0.006,0.043,0.288,0.007,0.008,0.002,0.002,0.288,0.008,0.000,0
20260703_214628,case01_boxes_2layer,6,213.5,1.000,211.530,419.781,-1.418,-123.869,9.699,0.000,-4.246,38.115,0.090,0.000,0.786,-0.238,-0.755,0.001,0.088,0.022,114.063,0.010,-0.001,-4.477,0.000,-0.021,0.000,0.002,0.024,0.005,-1.949,-0.059,0.264,0.000,1,1,1,1,-0.002,-0.006,0.032,-0.238,0.007,0.007,0.002,0.002,0.238,0.007,0.000,0
20260703_214628,case01_boxes_2layer,6,213.5,1.000,211.892,423.309,-1.418,-125.397,9.775,0.000,-4.200,38.300,0.763,-0.002,0.467,0.512,-0.733,0.000,0.087,0.022,113.644,-0.014,-0.001,-4.189,0.000,-0.020,0.000,-0.004,0.009,-0.004,-1.739,-0.058,0.268,0.000,1,1,1,1,0.002,0.006,0.043,0.286,0.006,0.006,0.002,0.002,0.286,0.006,0.000,0
20260703_214628,case01_boxes_2layer,6,213.5,1.000,212.250,426.807,-1.418,-126.886,9.812,0.000,-4.143,38.344,0.374,-0.001,0.567,0.119,-0.669,0.000,0.082,0.021,113.261,-0.049,-0.002,-3.827,0.000,-0.018,0.000,-0.001,0.014,0.001,-1.534,-0.051,0.267,0.000,1,1,1,1,0.002,0.006,0.043,0.286,0.004,0.005,0.002,0.002,0.286,0.005,0.000,0
20260703_214628,case01_boxes_2layer,6,213.5,1.000,212.610,430.341,-1.418,-128.366,9.844,0.000,-4.096,38.384,0.318,-0.002,0.466,0.111,-0.553,-0.001,0.073,0.021,112.913,-0.090,-0.001,-3.477,-0.001,-0.016,0.000,-0.002,0.024,0.001,-1.392,-0.047,0.266,0.000,1,1,1,1,0.002,0.006,0.042,0.286,0.005,0.005,0.001,0.001,0.286,0.005,0.000,0
20260703_214628,case01_boxes_2layer,6,213.5,1.000,212.969,433.872,-1.419,-129.823,9.839,0.000,-4.035,38.284,-0.047,0.000,0.615,-0.279,-0.550,0.001,0.061,0.021,112.605,-0.111,-0.001,-3.083,0.000,-0.014,0.000,0.003,0.016,0.004,-1.425,-0.044,0.259,0.000,1,1,1,1,-0.002,-0.006,0.031,-0.238,0.006,0.006,0.002,0.002,0.238,0.006,0.000,0
20260703_214628,case01_boxes_2layer,6,213.5,1.000,213.335,437.479,-1.419,-131.290,9.904,0.000,-4.002,38.455,0.645,0.002,0.328,0.472,-0.548,0.003,0.053,0.021,112.303,-0.080,-0.001,-3.016,0.000,-0.014,0.000,0.000,-0.002,-0.006,-1.343,-0.045,0.264,0.000,1,1,1,1,0.002,0.006,0.042,0.286,0.006,0.006,0.001,0.001,0.286,0.006,0.000,0
20260703_214628,case01_boxes_2layer,6,213.5,1.000,213.690,440.999,-1.419,-132.702,9.930,0.000,-3.960,38.486,0.260,0.001,0.417,0.085,-0.484,0.002,0.049,0.021,112.025,-0.042,-0.001,-2.780,0.000,-0.013,0.000,0.001,0.010,-0.001,-1.202,-0.040,0.263,0.000,1,1,1,1,0.002,0.006,0.042,0.285,0.005,0.005,0.001,0.001,0.285,0.005,0.000,0
20260703_214628,case01_boxes_2layer,6,213.5,1.000,214.055,444.620,-1.419,-134.137,9.953,0.000,-3.924,38.515,0.231,0.000,0.362,0.080,-0.422,0.001,0.047,0.021,111.766,-0.026,0.001,-2.599,0.000,-0.012,0.000,0.000,0.014,0.000,-1.052,-0.035,0.262,0.000,1,1,1,1,0.002,0.006,0.042,0.285,0.004,0.004,0.001,0.001,0.285,0.004,0.000,0
20260703_214628,case01_boxes_2layer,6,213.5,1.000,214.416,448.207,-1.419,-135.543,9.973,0.000,-3.893,38.542,0.203,-0.001,0.310,0.075,-0.362,0.000,0.044,0.021,111.540,-0.031,0.000,-2.252,0.000,-0.010,0.000,-0.001,0.016,0.000,-0.910,-0.031,0.262,0.000,1,1,1,1,0.002,0.006,0.042,0.285,0.003,0.003,0.001,0.001,0.285,0.003,0.000,0
20260703_214628,case01_boxes_2layer,6,213.5,1.000,214.895,452.990,-1.419,-137.398,9.996,0.000,-3.861,38.576,0.227,-0.001,0.325,0.093,-0.385,-0.001,0.037,0.021,111.293,-0.071,-0.001,-2.469,0.000,-0.008,0.000,-0.001,0.023,0.001,-0.684,-0.021,0.260,0.000,1,1,1,1,0.002,0.006,0.042,0.285,0.002,0.002,0.000,0.000,0.285,0.002,0.000,0
20260703_214628,case01_boxes_2layer,6,213.5,1.000,215.372,457.751,-1.419,-139.228,10.008,0.000,-3.810,38.551,0.119,-0.002,0.500,-0.069,-0.510,-0.001,0.027,0.020,111.103,-0.095,-0.011,-1.908,0.000,-0.010,0.000,0.005,-0.021,-0.001,-1.609,-0.061,0.225,0.000,1,1,1,1,0.002,0.006,0.037,0.287,0.015,0.015,0.000,0.000,0.287,0.015,0.000,0
20260703_214628,case01_boxes_2layer,6,213.5,1.000,215.858,462.620,-1.418,-140.998,10.089,0.004,-3.436,38.368,0.808,0.048,3.741,-0.534,-3.789,0.056,0.118,0.015,110.221,0.905,-0.049,-8.818,0.007,-0.062,-0.003,0.065,-0.513,-0.023,-7.270,-0.245,0.232,0.000,1,1,1,1,0.003,0.005,0.038,0.282,0.044,0.046,0.002,0.002,0.282,0.046,0.055,0
20260703_214628,case01_boxes_2layer,6,213.5,1.000,216.341,467.515,-1.415,-142.497,10.174,0.010,-2.782,37.970,0.852,0.060,6.547,-1.178,-6.496,0.104,0.397,0.014,107.693,2.791,-0.009,-25.274,0.011,-0.115,-0.003,0.044,-0.536,-0.009,-11.129,-0.350,0.243,0.000,1,1,1,1,-0.002,-0.005,0.027,-0.224,0.043,0.050,0.011,0.010,0.224,0.050,0.245,0
20260703_214628,case01_boxes_2layer,6,213.5,1.000,216.819,472.405,-1.411,-143.665,10.313,0.007,-2.162,37.935,1.394,-0.036,6.199,-0.178,-6.351,0.038,0.667,0.021,104.281,2.701,0.065,-34.126,0.007,-0.129,-0.002,-0.045,-0.136,0.013,-11.122,-0.371,0.259,0.000,1,1,1,1,0.002,0.004,0.040,0.254,0.030,0.038,0.015,0.015,0.254,0.038,0.235,0
20260703_214628,case01_boxes_2layer,6,213.5,1.000,217.302,477.397,-1.410,-144.539,10.373,-0.002,-1.540,37.752,0.596,-0.083,6.220,-0.575,-6.223,-0.003,0.746,0.021,100.751,0.794,0.001,-35.300,-0.002,-0.120,0.001,-0.083,0.084,0.028,-9.753,-0.325,0.261,0.000,1,1,1,1,-0.002,-0.004,0.028,-0.210,0.018,0.025,0.017,0.016,0.210,0.025,0.226,0
20260703_214628,case01_boxes_2layer,6,213.5,1.000,217.770,482.277,-1.412,-145.151,10.436,-0.008,-1.130,37.790,0.633,-0.064,4.096,0.065,-4.144,-0.021,0.585,0.019,97.886,-1.613,-0.022,-28.653,-0.009,-0.093,0.002,-0.074,0.278,0.009,-7.390,-0.224,0.263,0.000,1,1,1,1,-0.003,-0.005,0.029,-0.221,0.014,0.018,0.014,0.014,0.221,0.018,0.080,0
20260703_214628,case01_boxes_2layer,6,213.5,1.000,218.260,487.413,-1.416,-145.609,10.484,-0.008,-0.784,37.846,0.473,-0.002,3.467,0.131,-3.496,0.016,0.296,0.018,95.628,-2.886,-0.004,-22.571,-0.010,-0.069,0.001,-0.006,0.231,-0.004,-5.592,-0.186,0.264,0.000,1,1,1,1,-0.003,-0.005,0.031,-0.235,0.011,0.013,0.010,0.010,0.235,0.013,0.035,0
20260703_214628,case01_boxes_2layer,6,213.5,1.000,218.740,492.460,-1.419,-145.914,10.516,-0.004,-0.514,37.904,0.328,0.046,2.695,0.144,-2.711,0.050,0.087,0.019,93.899,-2.087,0.009,-17.292,-0.005,-0.056,0.001,0.050,0.135,-0.007,-4.694,-0.157,0.264,0.000,1,1,1,1,-0.003,-0.006,0.032,-0.241,0.012,0.013,0.008,0.008,0.241,0.013,0.000,0
20260703_214628,case01_boxes_2layer,6,213.5,1.000,219.220,497.519,-1.419,-146.102,10.580,0.001,-0.298,38.104,0.638,0.045,2.160,0.544,-2.186,0.046,0.034,0.021,92.483,-0.536,0.015,-14.162,0.001,-0.047,0.000,0.053,0.085,-0.009,-3.921,-0.131,0.270,0.000,1,1,1,1,0.002,0.006,0.043,0.290,0.010,0.011,0.006,0.006,0.290,0.011,0.000,0
20260703_214628,case01_boxes_2layer,6,213.5,1.000,219.699,502.583,-1.418,-146.194,10.602,0.003,-0.111,38.168,0.215,0.018,1.871,0.172,-1.876,0.021,0.091,0.022,91.304,0.568,0.011,-11.790,0.003,-0.040,0.000,0.023,0.079,0.000,-3.260,-0.109,0.270,0.000,1,1,1,1,0.002,0.006,0.043,0.286,0.009,0.009,0.005,0.005,0.286,0.009,0.000,0
20260703_214628,case01_boxes_2layer,6,213.5,1.000,220.047,506.266,-1.417,-146.209,10.578,0.002,0.007,38.081,-0.234,-0.005,1.176,-0.246,-1.173,-0.003,0.145,0.022,90.577,0.545,0.003,-7.267,0.002,-0.033,0.000,-0.005,0.060,0.006,-2.665,-0.089,0.264,0.000,1,1,1,1,-0.003,-0.006,0.032,-0.235,0.005,0.005,0.005,0.005,0.235,0.005,0.000,0
20260703_214628,case01_boxes_2layer,6,213.5,1.000,220.416,510.174,-1.417,-146.185,10.629,0.000,0.111,38.266,0.506,-0.016,1.046,0.507,-1.045,-0.013,0.176,0.022,89.921,0.309,0.001,-6.559,0.001,-0.029,0.000,-0.018,0.047,-0.005,-2.410,-0.072,0.269,0.000,1,1,1,1,0.002,0.005,0.043,0.282,0.007,0.008,0.004,0.004,0.282,0.008,0.000,0
20260703_214628,case01_boxes_2layer,6,213.5,1.000,220.900,515.317,-1.417,-146.102,10.608,-0.002,0.218,38.199,-0.203,-0.020,1.069,-0.188,-1.072,-0.018,0.155,0.022,89.235,-0.213,-0.002,-6.866,-0.002,-0.021,0.000,-0.024,0.080,0.005,-1.779,-0.053,0.263,0.000,1,1,1,1,-0.002,-0.006,0.032,-0.235,0.005,0.005,0.003,0.003,0.235,0.005,0.000,0
20260703_214628,case01_boxes_2layer,6,213.5,1.000,221.369,520.299,-1.418,-145.981,10.624,-0.002,0.285,38.259,0.151,-0.007,0.665,0.165,-0.661,-0.006,0.088,0.022,88.755,-0.670,-0.004,-4.797,-0.003,-0.014,0.000,-0.009,0.067,0.000,-1.114,-0.037,0.263,0.000,1,1,1,1,-0.002,-0.006,0.032,-0.237,0.001,0.001,0.002,0.002,0.237,0.002,0.000,0
20260703_214628,case01_boxes_2layer,6,213.5,1.000,221.727,524.115,-1.419,-145.872,10.635,-0.002,0.315,38.304,0.119,0.003,0.301,0.127,-0.297,0.003,0.031,0.021,88.509,-0.563,-0.001,-2.461,-0.003,-0.009,0.000,0.003,0.050,0.000,-0.763,-0.022,0.262,0.000,1,1,1,1,-0.002,-0.006,0.032,-0.239,0.001,0.001,0.001,0.001,0.239,0.001,0.000,0
20260703_214628,case01_boxes_2layer,6,213.5,1.000,222.095,528.038,-1.419,-145.753,10.685,-0.001,0.326,38.483,0.493,0.007,0.111,0.496,-0.097,0.007,-0.013,0.021,88.362,-0.447,-0.001,-1.473,-0.002,-0.005,0.000,0.009,0.043,-0.005,-0.305,-0.010,0.265,0.000,1,1,1,1,0.002,0.006,0.043,0.289,0.000,0.000,0.000,0.000,0.289,0.000,0.000,0
20260703_214628,case01_boxes_2layer,6,213.5,1.000,222.453,531.856,-1.420,-145.637,10.694,-0.001,0.317,38.514,0.090,0.007,-0.090,0.087,0.093,0.007,-0.038,0.021,88.319,-0.251,-0.003,-0.424,-0.001,0.000,0.000,0.009,0.048,0.000,0.125,0.004,0.262,0.000,1,1,1,1,0.002,0.006,0.042,0.290,-0.002,-0.002,0.000,0.000,0.290,0.002,0.000,0
20260703_214628,case01_boxes_2layer,6,213.5,1.000,222.814,535.715,-1.420,-145.527,10.701,0.000,0.289,38.537,0.071,0.005,-0.276,0.064,0.277,0.005,-0.049,0.021,88.376,-0.105,-0.002,0.569,0.000,0.005,0.000,0.005,0.048,0.000,0.532,0.018,0.259,0.000,1,1,1,1,0.002,0.006,0.042,0.290,-0.003,-0.003,-0.001,-0.001,0.290,0.003,0.000,0
20260703_214628,case01_boxes_2layer,6,213.5,1.000,223.175,539.566,-1.420,-145.432,10.706,0.000,0.243,38.552,0.053,0.001,-0.466,0.041,0.467,0.001,-0.053,0.021,88.534,-0.041,-0.001,1.580,0.000,0.010,0.000,0.001,0.050,0.000,0.965,0.032,0.257,0.000,1,1,1,1,0.002,0.006,0.041,0.290,-0.005,-0.004,-0.002,-0.002,0.290,0.005,0.000,0
20260703_214628,case01_boxes_2layer,6,213.5,1.000,223.534,543.405,-1.420,-145.357,10.710,0.000,0.176,38.560,0.034,-0.003,-0.665,0.020,0.666,-0.002,-0.060,0.021,88.796,-0.067,-0.002,2.616,0.000,0.015,0.000,-0.003,0.052,0.000,1.409,0.047,0.254,0.000,1,1,1,1,0.002,0.006,0.041,0.291,-0.006,-0.006,-0.002,-0.002,0.291,0.006,0.000,0
20260703_214628,case01_boxes_2layer,6,213.5,1.000,223.895,547.265,-1.420,-145.309,10.711,-0.001,0.088,38.560,0.011,-0.004,-0.886,-0.002,0.886,-0.003,-0.075,0.020,89.170,-0.154,-0.002,3.743,-0.001,0.021,0.000,-0.005,0.056,0.000,1.881,0.063,0.252,0.000,1,1,1,1,0.002,0.006,0.041,0.292,-0.008,-0.007,-0.003,-0.003,0.292,0.008,0.000,0
20260703_214628,case01_boxes_2layer,6,213.5,1.000,224.253,551.098,-1.420,-145.299,10.709,-0.001,-0.025,38.552,-0.018,-0.004,-1.130,-0.024,1.130,-0.002,-0.101,0.020,89.661,-0.254,-0.002,4.910,-0.001,0.027,0.000,-0.005,0.061,0.000,2.396,0.080,0.251,0.000,1,1,1,1,0.002,0.006,0.041,0.294,-0.009,-0.009,-0.004,-0.004,0.294,0.009,0.000,0
20260703_214628,case01_boxes_2layer,6,213.5,1.000,224.616,554.976,-1.421,-145.335,10.703,-0.001,-0.165,38.537,-0.056,-0.003,-1.400,-0.049,1.400,0.001,-0.135,0.020,90.291,-0.341,-0.002,6.301,-0.002,0.033,0.000,-0.003,0.067,0.000,2.978,0.100,0.249,0.000,1,1,1,1,0.002,0.006,0.041,0.296,-0.011,-0.011,-0.005,-0.005,0.296,0.011,0.000,0
20260703_214628,case01_boxes_2layer,6,213.5,1.000,224.975,558.811,-1.421,-145.426,10.693,-0.002,-0.335,38.512,-0.108,-0.001,-1.694,-0.076,1.696,0.004,-0.174,0.020,91.061,-0.388,-0.003,7.697,-0.002,0.041,0.000,-0.001,0.074,0.000,3.654,0.123,0.247,0.000,1,1,1,1,0.002,0.006,0.041,0.299,-0.014,-0.013,-0.006,-0.006,0.299,0.014,0.000,0
20260703_214628,case01_boxes_2layer,6,213.5,1.000,225.327,562.569,-1.422,-145.580,10.635,-0.002,-0.531,38.334,-0.576,0.000,-1.958,-0.508,1.976,0.007,-0.213,0.019,91.973,-0.399,-0.004,9.120,-0.002,0.050,0.000,0.000,0.089,0.006,4.389,0.139,0.240,0.000,1,1,1,1,-0.002,-0.007,0.030,-0.254,-0.018,-0.017,-0.006,-0.006,0.254,0.018,0.000,0
20260703_214628,case01_boxes_2layer,6,213.5,1.000,225.685,566.380,-1.422,-145.814,10.608,-0.001,-0.761,38.289,-0.265,0.002,-2.301,-0.142,2.312,0.012,-0.252,0.019,93.056,-0.382,-0.003,10.825,-0.002,0.058,0.000,0.001,0.081,0.000,5.197,0.174,0.239,0.000,1,1,1,1,-0.002,-0.007,0.030,-0.256,-0.022,-0.021,-0.007,-0.007,0.256,0.022,0.000,0
20260703_214628,case01_boxes_2layer,6,213.5,1.000,226.057,570.328,-1.423,-146.155,10.606,-0.002,-1.058,38.369,-0.029,-0.004,-2.969,0.199,2.963,0.012,-0.296,0.018,94.409,-0.441,-0.005,13.532,-0.002,0.069,0.000,-0.004,0.116,-0.005,6.278,0.210,0.243,0.000,1,1,1,1,0.002,0.007,0.040,0.307,-0.025,-0.023,-0.009,-0.009,0.307,0.025,0.000,0
20260703_214628,case01_boxes_2layer,6,213.5,1.000,226.414,574.096,-1.423,-146.596,10.542,-0.002,-1.400,38.285,-0.635,-0.005,-3.419,-0.275,3.467,0.016,-0.348,0.018,95.981,-0.523,-0.006,15.718,-0.003,0.084,0.000,-0.006,0.143,0.001,7.803,0.247,0.242,0.000,1,1,1,1,0.002,0.007,0.041,0.312,-0.035,-0.031,-0.010,-0.011,0.312,0.035,0.033,0
