run_id,case_name,cargo_count,total_mass_kg,secured_frac,Time,PosX,PosY,PosZ,VelX,VelY,VelZ,SpeedKmh,AccX,AccY,AccZ,LongAcc,LatAcc,VertAcc,Roll,Pitch,Yaw,RollRate,PitchRate,YawRate,AngVelX,AngVelY,AngVelZ,AngAccX,AngAccY,AngAccZ,SteerAngle,TargetSteer,Throttle,Brake,FL_Grounded,FR_Grounded,RL_Grounded,RR_Grounded,FL_ForwardSlip,FR_ForwardSlip,RL_ForwardSlip,RR_ForwardSlip,FL_SideSlip,FR_SideSlip,RL_SideSlip,RR_SideSlip,MaxForwardSlip,MaxSideSlip,RolloverRisk,IsRollover
20260703_205201,case01_boxes_2layer,6,62.2,1.000,0.639,679.390,-1.495,736.107,-0.170,0.466,-0.007,1.784,-1.726,0.987,0.087,1.727,0.083,0.984,-0.200,-0.090,-89.996,-0.490,0.130,0.046,0.010,0.002,0.004,0.003,0.021,0.024,12.800,0.381,1.000,0.000,1,1,1,1,-0.006,-0.002,-0.541,0.530,-0.008,-0.006,-0.003,-0.003,0.541,0.008,0.000,0
20260703_205201,case01_boxes_2layer,6,62.2,1.000,0.747,679.359,-1.447,736.108,-0.396,0.393,0.019,2.011,-2.261,-0.722,0.261,2.260,0.263,-0.723,-0.255,-0.050,-89.965,-0.549,0.405,0.310,0.008,0.007,0.009,-0.018,0.051,0.048,14.506,0.386,1.000,0.000,1,1,1,1,-0.007,-0.001,-0.218,0.762,-0.009,-0.003,-0.005,-0.005,0.762,0.009,0.000,0
20260703_205201,case01_boxes_2layer,6,62.2,1.000,0.854,679.302,-1.413,736.112,-0.633,0.226,0.045,2.426,-2.371,-1.671,0.266,2.372,0.271,-1.669,-0.294,0.017,-89.907,-0.388,0.667,0.576,0.005,0.012,0.012,-0.031,0.044,0.033,14.504,0.386,1.000,0.000,1,1,1,1,-0.008,-0.003,0.183,-0.383,-0.014,-0.007,-0.003,-0.003,0.383,0.014,0.000,0
20260703_205201,case01_boxes_2layer,6,62.2,1.000,0.959,679.223,-1.398,736.118,-0.856,0.076,0.069,3.105,-2.234,-1.499,0.240,2.237,0.242,-1.494,-0.314,0.092,-89.828,-0.197,0.746,0.791,0.002,0.015,0.012,-0.027,0.033,0.002,14.296,0.382,1.000,0.000,1,1,1,1,-0.006,-0.001,0.189,0.369,-0.013,-0.004,-0.003,-0.004,0.369,0.013,0.000,0
20260703_205201,case01_boxes_2layer,6,62.2,1.000,1.071,679.114,-1.397,736.127,-1.101,-0.044,0.095,3.983,-2.449,-1.201,0.252,2.454,0.247,-1.193,-0.318,0.160,-89.720,-0.045,0.685,1.084,0.000,0.019,0.009,-0.024,0.038,-0.037,13.521,0.362,1.000,0.000,1,1,1,1,-0.006,-0.003,0.164,-0.321,-0.012,-0.003,-0.003,-0.003,0.321,0.012,0.000,0
20260703_205201,case01_boxes_2layer,6,62.2,1.000,1.174,678.988,-1.404,736.138,-1.318,-0.085,0.114,4.774,-2.171,-0.415,0.193,2.174,0.180,-0.407,-0.312,0.198,-89.602,0.063,0.382,1.181,-0.002,0.021,0.004,-0.012,0.026,-0.046,13.094,0.352,1.000,0.000,1,1,1,1,-0.005,-0.003,0.148,-0.023,-0.011,-0.002,-0.003,-0.003,0.148,0.011,0.000,0
20260703_205201,case01_boxes_2layer,6,62.2,1.000,1.283,678.833,-1.413,736.151,-1.548,-0.085,0.133,5.603,-2.300,0.005,0.195,2.302,0.174,0.015,-0.299,0.206,-89.462,0.123,0.080,1.397,-0.002,0.024,-0.001,-0.007,0.026,-0.052,12.492,0.337,1.000,0.000,1,1,1,1,-0.005,-0.003,0.142,-0.168,-0.010,-0.001,-0.002,-0.003,0.168,0.010,0.000,0
20260703_205201,case01_boxes_2layer,6,62.2,1.000,1.383,678.668,-1.421,736.165,-1.760,-0.062,0.148,6.364,-2.120,0.225,0.151,2.121,0.124,0.232,-0.286,0.188,-89.320,0.138,-0.182,1.419,-0.003,0.026,-0.005,-0.003,0.017,-0.036,11.734,0.318,1.000,0.000,1,1,1,1,-0.005,-0.003,0.138,-0.115,-0.009,0.000,-0.002,-0.003,0.138,0.009,0.000,0
20260703_205201,case01_boxes_2layer,6,62.2,1.000,1.487,678.474,-1.426,736.181,-1.971,-0.035,0.164,7.122,-2.108,0.271,0.156,2.110,0.124,0.278,-0.270,0.152,-89.163,0.154,-0.356,1.568,-0.003,0.027,-0.007,-0.001,0.016,-0.019,11.190,0.304,1.000,0.000,1,1,1,1,-0.005,-0.002,0.136,-0.048,-0.008,0.000,-0.002,-0.003,0.136,0.008,0.000,0
20260703_205201,case01_boxes_2layer,6,62.2,1.000,1.591,678.257,-1.428,736.199,-2.203,-0.011,0.178,7.957,-2.319,0.241,0.139,2.321,0.098,0.246,-0.254,0.111,-88.998,0.161,-0.417,1.650,-0.003,0.028,-0.007,-0.002,0.009,-0.001,10.163,0.278,1.000,0.000,1,1,1,1,-0.004,-0.001,0.136,0.106,-0.005,0.002,-0.003,-0.003,0.136,0.005,0.000,0
20260703_205201,case01_boxes_2layer,6,62.2,1.000,1.699,678.007,-1.429,736.219,-2.410,0.002,0.194,8.705,-2.071,0.132,0.156,2.073,0.113,0.135,-0.237,0.072,-88.821,0.174,-0.392,1.769,-0.003,0.029,-0.006,-0.001,0.011,0.013,9.808,0.269,1.000,0.000,1,1,1,1,-0.005,-0.002,0.135,0.089,-0.007,0.000,-0.003,-0.003,0.135,0.007,0.000,0
20260703_205201,case01_boxes_2layer,6,62.2,1.000,1.802,677.746,-1.428,736.240,-2.637,0.008,0.210,9.524,-2.269,0.062,0.168,2.272,0.114,0.064,-0.220,0.045,-88.645,0.170,-0.268,1.760,-0.003,0.030,-0.003,-0.001,0.009,0.022,9.115,0.252,1.000,0.000,1,1,1,1,-0.005,-0.002,0.135,0.088,-0.005,0.001,-0.003,-0.003,0.135,0.005,0.000,0
20260703_205201,case01_boxes_2layer,6,62.2,1.000,1.906,677.462,-1.427,736.263,-2.842,0.009,0.228,10.264,-2.050,0.010,0.172,2.054,0.117,0.012,-0.202,0.031,-88.464,0.174,-0.138,1.812,-0.003,0.031,-0.001,0.000,0.009,0.021,8.721,0.235,1.000,0.000,1,1,1,1,-0.005,-0.002,0.135,0.087,-0.005,0.000,-0.003,-0.003,0.135,0.005,0.000,0
20260703_205201,case01_boxes_2layer,6,62.2,1.000,2.011,677.154,-1.426,736.287,-3.067,0.009,0.245,11.076,-2.249,-0.008,0.170,2.253,0.102,-0.007,-0.185,0.029,-88.279,0.176,-0.015,1.854,-0.003,0.031,0.001,0.001,0.003,0.020,8.097,0.225,1.000,0.000,1,1,1,1,-0.005,-0.002,0.135,0.087,-0.004,0.001,-0.003,-0.003,0.135,0.004,0.000,0
20260703_205201,case01_boxes_2layer,6,62.2,1.000,2.123,676.799,-1.425,736.315,-3.291,0.008,0.262,11.885,-2.239,-0.010,0.171,2.243,0.096,-0.008,-0.166,0.038,-88.078,0.183,0.086,2.006,-0.003,0.031,0.002,0.001,0.001,0.013,7.486,0.209,1.000,0.000,1,1,1,1,-0.005,-0.002,0.136,0.087,-0.003,0.001,-0.003,-0.003,0.136,0.003,0.000,0
20260703_205201,case01_boxes_2layer,6,62.2,1.000,2.226,676.447,-1.424,736.343,-3.494,0.007,0.277,12.617,-2.027,-0.005,0.156,2.031,0.082,-0.003,-0.150,0.051,-87.892,0.162,0.133,1.863,-0.003,0.031,0.003,0.002,-0.001,0.005,6.951,0.195,1.000,0.000,1,1,1,1,-0.004,-0.002,0.136,0.088,-0.002,0.002,-0.003,-0.003,0.136,0.003,0.000,0
20260703_205201,case01_boxes_2layer,6,62.2,1.000,2.331,676.070,-1.424,736.373,-3.716,0.007,0.295,13.418,-2.219,-0.004,0.178,2.224,0.089,-0.001,-0.135,0.066,-87.705,0.150,0.147,1.864,-0.002,0.031,0.002,0.003,-0.003,-0.001,6.416,0.181,1.000,0.000,1,1,1,1,-0.004,-0.002,0.137,0.088,-0.001,0.002,-0.003,-0.004,0.137,0.004,0.000,0
20260703_205201,case01_boxes_2layer,6,62.2,1.000,2.434,675.675,-1.423,736.405,-3.916,0.006,0.311,14.143,-2.009,-0.007,0.159,2.014,0.072,-0.004,-0.122,0.079,-87.523,0.133,0.128,1.826,-0.002,0.030,0.002,0.003,-0.005,-0.005,5.731,0.162,1.000,0.000,1,1,1,1,-0.004,-0.002,0.137,0.088,0.003,0.006,-0.004,-0.004,0.137,0.006,0.000,0
20260703_205201,case01_boxes_2layer,6,62.2,1.000,2.542,675.241,-1.422,736.439,-4.137,0.005,0.326,14.938,-2.202,-0.013,0.153,2.207,0.050,-0.010,-0.110,0.089,-87.338,0.123,0.097,1.846,-0.002,0.029,0.001,0.002,-0.012,-0.007,5.293,0.151,1.000,0.000,1,1,1,1,-0.004,-0.002,0.137,0.088,0.001,0.004,-0.004,-0.004,0.137,0.004,0.000,0
20260703_205201,case01_boxes_2layer,6,62.2,1.000,2.643,674.814,-1.422,736.473,-4.335,0.003,0.343,15.656,-1.988,-0.017,0.170,1.994,0.072,-0.013,-0.100,0.094,-87.171,0.096,0.051,1.673,-0.001,0.029,0.001,0.003,-0.006,-0.007,4.917,0.141,1.000,0.000,1,1,1,1,-0.004,-0.002,0.137,0.088,0.001,0.003,-0.004,-0.004,0.137,0.004,0.000,0
20260703_205201,case01_boxes_2layer,6,62.2,1.000,2.747,674.356,-1.422,736.509,-4.533,0.001,0.361,16.371,-1.978,-0.019,0.174,1.984,0.070,-0.015,-0.092,0.095,-87.003,0.077,0.014,1.677,-0.001,0.028,0.000,0.003,-0.007,-0.006,4.570,0.131,1.000,0.000,1,1,1,1,-0.004,-0.002,0.136,0.088,0.001,0.003,-0.004,-0.004,0.136,0.004,0.000,0
20260703_205201,case01_boxes_2layer,6,62.2,1.000,2.850,673.874,-1.422,736.547,-4.750,-0.001,0.381,17.153,-2.163,-0.019,0.201,2.171,0.082,-0.016,-0.087,0.093,-86.839,0.055,-0.016,1.643,-0.001,0.027,0.000,0.004,-0.007,-0.005,4.225,0.122,1.000,0.000,1,1,1,1,-0.004,-0.002,0.136,0.088,0.001,0.003,-0.004,-0.004,0.136,0.004,0.000,0
20260703_205201,case01_boxes_2layer,6,62.2,1.000,2.959,673.350,-1.422,736.590,-4.945,-0.002,0.399,17.860,-1.956,-0.013,0.185,1.964,0.071,-0.010,-0.084,0.090,-86.673,0.033,-0.038,1.661,0.000,0.026,-0.001,0.004,-0.008,-0.002,3.912,0.113,1.000,0.000,1,1,1,1,-0.004,-0.002,0.136,0.088,0.001,0.003,-0.004,-0.004,0.136,0.004,0.000,0
20260703_205201,case01_boxes_2layer,6,62.2,1.000,3.066,672.805,-1.422,736.634,-5.156,-0.001,0.419,18.623,-2.110,0.008,0.198,2.118,0.069,0.011,-0.083,0.085,-86.512,0.009,-0.049,1.604,0.000,0.025,-0.001,0.004,-0.012,-0.001,3.611,0.100,1.000,0.000,1,1,1,1,-0.011,-0.128,0.057,0.175,0.001,0.003,-0.004,-0.004,0.175,0.004,0.000,0
20260703_205201,case01_boxes_2layer,6,62.2,1.000,3.180,672.209,-1.422,736.682,-5.376,-0.002,0.441,19.418,-2.198,-0.012,0.219,2.208,0.078,-0.009,-0.084,0.079,-86.350,-0.014,-0.056,1.625,0.000,0.024,-0.001,0.004,-0.007,0.003,3.184,0.093,1.000,0.000,1,1,1,1,0.013,0.297,0.281,0.589,0.004,0.005,-0.005,-0.005,0.589,0.005,0.000,0
20260703_205201,case01_boxes_2layer,6,62.2,1.000,3.283,671.646,-1.423,736.729,-5.528,-0.003,0.457,19.969,-1.520,-0.002,0.155,1.527,0.055,0.000,-0.087,0.076,-86.210,-0.030,-0.033,1.401,0.001,0.024,-0.001,0.002,-0.005,-0.007,2.913,0.086,0.990,0.000,1,1,1,1,-0.015,-0.479,0.014,-0.470,0.001,0.002,-0.003,-0.003,0.479,0.003,0.000,0
20260703_205201,case01_boxes_2layer,6,62.2,1.000,3.386,671.058,-1.423,736.778,-5.737,-0.002,0.477,20.725,-2.091,0.003,0.206,2.100,0.063,0.006,-0.091,0.074,-86.074,-0.045,-0.023,1.357,0.001,0.022,-0.001,0.003,-0.015,0.005,2.678,0.075,0.971,0.000,1,1,1,1,-0.002,-0.416,0.030,0.559,0.003,0.004,-0.004,-0.005,0.559,0.005,0.000,0
20260703_205201,case01_boxes_2layer,6,62.2,1.000,3.487,670.471,-1.423,736.827,-5.946,-0.002,0.497,21.479,-2.086,0.006,0.202,2.095,0.055,0.009,-0.097,0.073,-85.950,-0.054,-0.009,1.241,0.001,0.021,0.000,0.002,-0.019,0.005,2.342,0.069,0.940,0.000,1,1,1,1,-0.012,-0.370,0.023,0.263,0.003,0.004,-0.004,-0.004,0.370,0.004,0.000,0
20260703_205201,case01_boxes_2layer,6,62.2,1.000,3.587,669.867,-1.423,736.877,-6.069,-0.001,0.512,21.927,-1.235,0.007,0.149,1.242,0.058,0.008,-0.103,0.072,-85.833,-0.062,-0.007,1.173,0.001,0.021,-0.001,0.001,0.002,-0.008,2.147,0.061,0.911,0.000,1,1,1,1,-0.013,-0.364,0.049,-0.401,0.002,0.002,-0.003,-0.003,0.401,0.003,0.000,0
20260703_205201,case01_boxes_2layer,6,62.2,1.000,3.695,669.198,-1.423,736.934,-6.343,-0.001,0.537,22.916,-2.738,0.003,0.252,2.749,0.047,0.006,-0.110,0.071,-85.716,-0.070,-0.005,1.170,0.001,0.017,0.000,0.001,-0.036,0.013,1.764,0.053,0.893,0.000,1,1,1,1,-0.002,0.341,0.173,0.244,0.005,0.005,-0.004,-0.004,0.341,0.005,0.000,0
20260703_205201,case01_boxes_2layer,6,62.2,1.000,3.808,668.476,-1.423,736.995,-6.450,0.000,0.550,23.305,-1.072,0.002,0.126,1.078,0.044,0.003,-0.117,0.071,-85.603,-0.072,-0.008,1.125,0.001,0.017,-0.001,-0.001,0.001,-0.012,1.617,0.046,0.860,0.000,1,1,1,1,-0.011,-0.336,0.058,-0.142,0.002,0.003,-0.003,-0.003,0.336,0.003,0.000,0
20260703_205201,case01_boxes_2layer,6,62.2,1.000,3.915,667.770,-1.423,737.056,-6.681,-0.001,0.574,24.142,-2.313,-0.003,0.241,2.325,0.059,0.000,-0.124,0.069,-85.504,-0.067,-0.012,0.988,0.001,0.015,0.000,0.000,-0.026,0.008,1.408,0.042,0.845,0.000,1,1,1,1,0.005,0.324,0.148,0.451,0.005,0.005,-0.004,-0.004,0.451,0.005,0.000,0
20260703_205201,case01_boxes_2layer,6,62.2,1.000,4.022,667.047,-1.423,737.118,-6.811,-0.001,0.589,24.611,-1.295,-0.003,0.153,1.303,0.049,-0.001,-0.130,0.068,-85.413,-0.062,-0.017,0.916,0.001,0.014,0.000,-0.002,-0.003,-0.006,1.211,0.037,0.813,0.000,1,1,1,1,-0.007,-0.311,0.095,0.106,0.003,0.004,-0.003,-0.003,0.311,0.004,0.000,0
20260703_205201,case01_boxes_2layer,6,62.2,1.000,4.123,666.358,-1.424,737.178,-6.962,-0.001,0.607,25.160,-1.514,-0.003,0.174,1.524,0.050,-0.001,-0.135,0.066,-85.334,-0.052,-0.020,0.793,0.001,0.013,0.000,-0.001,-0.011,0.001,1.110,0.034,0.793,0.000,1,1,1,1,-0.005,-0.298,0.107,0.184,0.003,0.003,-0.003,-0.003,0.298,0.003,0.000,0
20260703_205201,case01_boxes_2layer,6,62.2,1.000,4.235,665.569,-1.424,737.247,-7.117,-0.002,0.625,25.721,-1.549,-0.002,0.185,1.559,0.056,0.000,-0.140,0.063,-85.251,-0.050,-0.028,0.826,0.001,0.012,0.000,-0.001,-0.012,0.000,0.954,0.029,0.773,0.000,1,1,1,1,-0.002,0.283,0.107,-0.092,0.004,0.004,-0.004,-0.004,0.283,0.004,0.000,0
20260703_205201,case01_boxes_2layer,6,62.2,1.000,4.347,664.764,-1.424,737.318,-7.220,-0.002,0.638,26.095,-1.031,0.000,0.131,1.038,0.044,0.002,-0.144,0.060,-85.175,-0.040,-0.029,0.758,0.000,0.012,-0.001,-0.002,0.002,-0.007,0.807,0.025,0.747,0.000,1,1,1,1,-0.009,-0.278,0.082,-0.241,0.003,0.003,-0.003,-0.003,0.278,0.003,0.000,0
20260703_205201,case01_boxes_2layer,6,62.2,1.000,4.459,663.941,-1.424,737.391,-7.426,-0.001,0.661,26.838,-2.052,0.001,0.224,2.063,0.048,0.003,-0.147,0.057,-85.106,-0.028,-0.028,0.693,0.000,0.010,0.000,-0.001,-0.026,0.010,0.723,0.021,0.737,0.000,1,1,1,1,0.004,0.263,0.124,0.418,0.004,0.004,-0.004,-0.004,0.418,0.004,0.000,0
20260703_205201,case01_boxes_2layer,6,62.2,1.000,4.571,663.104,-1.424,737.466,-7.577,-0.001,0.679,27.386,-1.513,0.003,0.177,1.523,0.045,0.004,-0.149,0.054,-85.042,-0.016,-0.030,0.635,0.000,0.009,0.000,-0.002,-0.011,0.001,0.596,0.017,0.713,0.000,1,1,1,1,0.001,0.248,0.121,0.252,0.004,0.004,-0.003,-0.003,0.252,0.004,0.000,0
20260703_205201,case01_boxes_2layer,6,62.2,1.000,4.678,662.287,-1.424,737.539,-7.683,-0.001,0.691,27.771,-1.062,0.003,0.127,1.069,0.034,0.004,-0.149,0.052,-84.987,-0.005,-0.023,0.551,0.000,0.008,0.000,-0.002,-0.006,-0.001,0.494,0.015,0.699,0.000,1,1,1,1,0.004,0.237,0.119,0.443,0.004,0.005,-0.004,-0.004,0.443,0.005,0.000,0
20260703_205201,case01_boxes_2layer,6,62.2,1.000,4.783,661.481,-1.424,737.612,-7.749,0.000,0.701,28.008,-0.655,0.004,0.093,0.660,0.034,0.005,-0.149,0.050,-84.939,0.006,-0.020,0.486,0.000,0.009,-0.001,-0.002,0.006,-0.008,0.396,0.012,0.671,0.000,1,1,1,1,-0.008,-0.220,0.072,-0.278,0.003,0.003,-0.002,-0.002,0.278,0.003,0.000,0
20260703_205201,case01_boxes_2layer,6,62.2,1.000,4.891,660.633,-1.424,737.689,-7.935,0.000,0.720,28.682,-1.861,0.002,0.199,1.871,0.033,0.004,-0.147,0.048,-84.893,0.016,-0.019,0.458,0.000,0.006,0.000,-0.001,-0.025,0.011,0.313,0.010,0.661,0.000,1,1,1,1,0.001,0.201,0.109,0.269,0.004,0.004,-0.003,-0.003,0.269,0.004,0.000,0
20260703_205201,case01_boxes_2layer,6,62.2,1.000,5.002,659.746,-1.425,737.769,-8.000,0.000,0.729,28.918,-0.651,0.003,0.088,0.656,0.029,0.004,-0.144,0.047,-84.851,0.026,-0.014,0.419,-0.001,0.007,0.000,-0.002,0.005,-0.007,0.243,0.007,0.638,0.000,1,1,1,1,-0.007,-0.182,0.071,-0.108,0.003,0.003,-0.002,-0.002,0.182,0.003,0.000,0
20260703_205201,case01_boxes_2layer,6,62.2,1.000,5.107,658.903,-1.425,737.846,-8.086,0.000,0.740,29.232,-0.866,0.002,0.105,0.872,0.026,0.002,-0.141,0.045,-84.815,0.032,-0.013,0.356,-0.001,0.006,-0.001,-0.001,-0.002,-0.002,0.196,0.006,0.623,0.000,1,1,1,1,-0.006,-0.156,0.073,-0.278,0.002,0.002,-0.002,-0.002,0.278,0.002,0.000,0
20260703_205201,case01_boxes_2layer,6,62.2,1.000,5.218,657.991,-1.424,737.930,-8.250,0.000,0.757,29.826,-1.641,0.000,0.176,1.650,0.026,0.001,-0.137,0.044,-84.782,0.040,-0.011,0.338,-0.001,0.004,0.000,0.000,-0.021,0.009,0.138,0.004,0.614,0.000,1,1,1,1,0.001,0.119,0.099,0.292,0.004,0.004,-0.003,-0.003,0.292,0.004,0.000,0
20260703_205201,case01_boxes_2layer,6,62.2,1.000,5.323,657.126,-1.424,738.009,-8.310,0.000,0.765,30.042,-0.594,0.001,0.078,0.599,0.024,0.001,-0.133,0.043,-84.753,0.042,-0.012,0.286,-0.001,0.005,0.000,-0.001,0.005,-0.006,0.089,0.003,0.594,0.000,1,1,1,1,-0.005,-0.064,0.071,-0.153,0.003,0.003,-0.002,-0.002,0.153,0.003,0.000,0
20260703_205201,case01_boxes_2layer,6,62.2,1.000,5.435,656.189,-1.424,738.096,-8.440,0.000,0.779,30.514,-1.304,-0.001,0.142,1.312,0.021,0.000,-0.128,0.042,-84.726,0.048,-0.013,0.273,-0.001,0.004,0.000,0.000,-0.013,0.005,0.049,0.001,0.586,0.000,1,1,1,1,0.002,0.021,0.092,0.383,0.004,0.004,-0.003,-0.003,0.383,0.004,0.000,0
20260703_205201,case01_boxes_2layer,6,62.2,1.000,5.542,655.279,-1.424,738.180,-8.495,0.000,0.786,30.712,-0.547,0.000,0.071,0.552,0.020,0.000,-0.124,0.041,-84.702,0.046,-0.012,0.233,-0.001,0.004,0.000,-0.001,0.005,-0.006,0.010,0.000,0.566,0.000,1,1,1,1,-0.005,-0.015,0.070,-0.250,0.003,0.003,-0.002,-0.002,0.250,0.003,0.000,0
20260703_205201,case01_boxes_2layer,6,62.2,1.000,5.647,654.386,-1.424,738.263,-8.581,0.000,0.796,31.025,-0.863,-0.001,0.097,0.868,0.017,0.000,-0.119,0.039,-84.682,0.045,-0.013,0.205,-0.001,0.004,0.000,0.000,-0.005,0.001,-0.014,-0.001,0.555,0.000,1,1,1,1,-0.005,-0.015,0.068,-0.199,0.002,0.003,-0.002,-0.002,0.199,0.003,0.000,0
20260703_205201,case01_boxes_2layer,6,62.2,1.000,5.759,653.417,-1.424,738.353,-8.704,0.000,0.809,31.470,-1.229,-0.001,0.131,1.235,0.016,0.000,-0.115,0.038,-84.662,0.046,-0.013,0.195,-0.001,0.002,0.000,0.001,-0.012,0.006,-0.038,-0.001,0.547,0.000,1,1,1,1,0.001,0.012,0.086,0.351,0.003,0.003,-0.002,-0.002,0.351,0.003,0.000,0
20260703_205201,case01_boxes_2layer,6,62.2,1.000,5.871,652.440,-1.424,738.443,-8.795,0.000,0.819,31.799,-0.910,-0.001,0.102,0.916,0.017,0.000,-0.110,0.037,-84.645,0.042,-0.015,0.176,-0.001,0.002,0.000,0.001,-0.003,0.000,-0.063,-0.002,0.534,0.000,1,1,1,1,0.001,0.011,0.083,0.342,0.003,0.003,-0.002,-0.002,0.342,0.003,0.000,0
20260703_205201,case01_boxes_2layer,6,62.2,1.000,5.971,651.557,-1.424,738.526,-8.868,0.000,0.828,32.063,-0.727,0.000,0.082,0.732,0.013,0.000,-0.107,0.035,-84.631,0.034,-0.011,0.140,-0.001,0.002,0.000,0.001,-0.002,0.000,-0.078,-0.003,0.524,0.000,1,1,1,1,0.001,0.011,0.082,0.336,0.003,0.003,-0.002,-0.002,0.336,0.003,0.000,0
20260703_205201,case01_boxes_2layer,6,62.2,1.000,6.083,650.562,-1.424,738.619,-8.907,0.000,0.833,32.205,-0.391,0.000,0.051,0.394,0.014,0.000,-0.104,0.034,-84.617,0.032,-0.011,0.141,0.000,0.003,0.000,0.000,0.007,-0.006,-0.093,-0.003,0.507,0.000,1,1,1,1,-0.004,-0.011,0.064,-0.222,0.002,0.002,-0.002,-0.002,0.222,0.002,0.000,0
20260703_205201,case01_boxes_2layer,6,62.2,1.000,6.191,649.595,-1.424,738.709,-9.018,0.000,0.844,32.608,-1.115,-0.001,0.118,1.121,0.013,0.000,-0.101,0.033,-84.604,0.025,-0.012,0.126,0.000,0.001,0.000,0.002,-0.011,0.006,-0.101,-0.003,0.502,0.000,1,1,1,1,0.001,0.010,0.078,0.329,0.003,0.003,-0.002,-0.002,0.329,0.003,0.000,0
20260703_205201,case01_boxes_2layer,6,62.2,1.000,6.291,648.691,-1.424,738.794,-9.083,0.000,0.852,32.842,-0.646,0.000,0.072,0.649,0.011,0.000,-0.100,0.032,-84.593,0.018,-0.010,0.106,0.000,0.001,0.000,0.001,-0.002,0.000,-0.106,-0.004,0.492,0.000,1,1,1,1,0.001,0.009,0.077,0.325,0.003,0.003,-0.002,-0.002,0.325,0.003,0.000,0
20260703_205201,case01_boxes_2layer,6,62.2,1.000,6.398,647.712,-1.424,738.886,-9.145,0.000,0.859,33.067,-0.622,0.000,0.070,0.626,0.011,0.000,-0.098,0.031,-84.583,0.013,-0.008,0.102,0.000,0.001,0.000,0.001,-0.001,0.000,-0.113,-0.004,0.483,0.000,1,1,1,1,0.001,0.009,0.076,0.322,0.003,0.003,-0.002,-0.002,0.322,0.003,0.000,0
20260703_205201,case01_boxes_2layer,6,62.2,1.000,6.499,646.796,-1.424,738.972,-9.205,0.000,0.865,33.284,-0.600,-0.001,0.067,0.603,0.010,0.000,-0.098,0.030,-84.574,0.007,-0.009,0.089,0.000,0.001,0.000,0.001,-0.001,0.000,-0.115,-0.004,0.474,0.000,1,1,1,1,0.001,0.009,0.074,0.319,0.003,0.003,-0.002,-0.002,0.319,0.003,0.000,0
20260703_205201,case01_boxes_2layer,6,62.2,1.000,6.599,645.872,-1.424,739.059,-9.263,0.000,0.872,33.494,-0.578,-0.001,0.065,0.582,0.010,0.000,-0.097,0.030,-84.566,0.002,-0.008,0.083,0.000,0.001,0.000,0.001,-0.001,0.000,-0.117,-0.004,0.466,0.000,1,1,1,1,0.001,0.008,0.073,0.316,0.003,0.003,-0.002,-0.002,0.316,0.003,0.000,0
20260703_205201,case01_boxes_2layer,6,62.2,1.000,6.702,644.911,-1.425,739.149,-9.287,0.000,0.875,33.583,-0.246,0.000,0.034,0.248,0.011,0.000,-0.098,0.029,-84.558,-0.003,-0.008,0.081,0.000,0.002,0.000,0.000,0.008,-0.006,-0.120,-0.004,0.452,0.000,1,1,1,1,-0.004,-0.009,0.058,-0.220,0.002,0.002,-0.001,-0.001,0.220,0.002,0.000,0
20260703_205201,case01_boxes_2layer,6,62.2,1.000,6.811,643.901,-1.425,739.244,-9.383,0.000,0.885,33.928,-0.954,-0.001,0.101,0.959,0.010,0.000,-0.098,0.028,-84.550,-0.008,-0.009,0.080,0.000,0.001,0.000,0.001,-0.010,0.006,-0.122,-0.004,0.449,0.000,1,1,1,1,0.001,0.008,0.070,0.310,0.002,0.002,-0.002,-0.002,0.310,0.002,0.000,0
20260703_205201,case01_boxes_2layer,6,62.2,1.000,6.919,642.887,-1.425,739.340,-9.434,0.000,0.891,34.115,-0.514,0.000,0.059,0.517,0.010,0.000,-0.099,0.027,-84.543,-0.011,-0.007,0.072,0.000,0.001,0.000,0.001,-0.001,0.000,-0.122,-0.004,0.441,0.000,1,1,1,1,0.001,0.008,0.069,0.307,0.002,0.002,-0.002,-0.002,0.307,0.002,0.000,0
20260703_205201,case01_boxes_2layer,6,62.2,1.000,7.027,641.865,-1.425,739.437,-9.453,0.000,0.894,34.181,-0.184,0.000,0.028,0.185,0.011,0.000,-0.101,0.026,-84.536,-0.015,-0.009,0.071,0.000,0.002,0.000,0.000,0.008,-0.006,-0.125,-0.004,0.428,0.000,1,1,1,1,-0.004,-0.008,0.055,-0.219,0.002,0.002,-0.001,-0.001,0.219,0.002,0.000,0
20260703_205201,case01_boxes_2layer,6,62.2,1.000,7.150,640.694,-1.425,739.548,-9.550,0.000,0.905,34.535,-0.976,-0.001,0.104,0.982,0.011,0.000,-0.103,0.025,-84.528,-0.019,-0.009,0.076,0.000,0.001,0.000,0.001,-0.010,0.006,-0.138,-0.005,0.424,0.000,1,1,1,1,0.001,0.007,0.067,0.301,0.003,0.003,-0.002,-0.002,0.301,0.003,0.000,0
20260703_205201,case01_boxes_2layer,6,62.2,1.000,7.251,639.733,-1.425,739.639,-9.596,0.000,0.910,34.699,-0.454,0.000,0.052,0.457,0.009,0.000,-0.105,0.025,-84.522,-0.017,-0.007,0.057,0.000,0.001,0.000,0.000,-0.001,0.000,-0.136,-0.004,0.418,0.000,1,1,1,1,0.001,0.007,0.066,0.298,0.002,0.002,-0.002,-0.002,0.298,0.002,0.000,0
20260703_205201,case01_boxes_2layer,6,62.2,1.000,7.359,638.694,-1.425,739.737,-9.639,0.000,0.915,34.858,-0.437,0.000,0.050,0.440,0.008,0.000,-0.106,0.024,-84.517,-0.019,-0.006,0.056,0.000,0.000,0.000,0.000,-0.001,0.000,-0.138,-0.005,0.411,0.000,1,1,1,1,0.001,0.007,0.065,0.296,0.002,0.002,-0.002,-0.002,0.296,0.002,0.000,0
20260703_205201,case01_boxes_2layer,6,62.2,1.000,7.462,637.694,-1.425,739.832,-9.650,0.000,0.917,34.898,-0.110,0.001,0.020,0.111,0.009,0.001,-0.108,0.024,-84.511,-0.018,-0.007,0.052,0.000,0.001,0.000,-0.001,0.008,-0.005,-0.142,-0.005,0.400,0.000,1,1,1,1,-0.003,-0.007,0.052,-0.216,0.002,0.002,-0.001,-0.001,0.216,0.002,0.000,0
20260703_205201,case01_boxes_2layer,6,62.2,1.000,7.570,636.648,-1.425,739.932,-9.730,0.000,0.925,35.187,-0.798,0.000,0.084,0.802,0.008,0.000,-0.110,0.023,-84.506,-0.017,-0.008,0.053,0.000,0.000,0.000,0.000,-0.009,0.005,-0.143,-0.005,0.398,0.000,1,1,1,1,0.001,0.006,0.063,0.291,0.002,0.002,-0.002,-0.002,0.291,0.002,0.000,0
20260703_205201,case01_boxes_2layer,6,62.2,1.000,7.679,635.596,-1.425,740.032,-9.769,0.000,0.930,35.328,-0.389,0.000,0.045,0.392,0.008,0.000,-0.111,0.022,-84.502,-0.016,-0.005,0.046,0.000,0.000,0.000,0.000,0.000,0.000,-0.143,-0.005,0.393,0.000,1,1,1,1,0.001,0.006,0.062,0.288,0.002,0.002,-0.002,-0.002,0.288,0.002,0.000,0
20260703_205201,case01_boxes_2layer,6,62.2,1.000,7.795,634.455,-1.425,740.140,-9.814,0.000,0.935,35.490,-0.449,0.000,0.051,0.451,0.008,0.001,-0.113,0.022,-84.497,-0.014,-0.007,0.049,0.000,0.000,0.000,0.000,-0.001,0.000,-0.151,-0.004,0.386,0.000,1,1,1,1,0.001,0.006,0.061,0.286,0.002,0.002,-0.001,-0.001,0.286,0.002,0.000,0
20260703_205201,case01_boxes_2layer,6,62.2,1.000,7.899,633.439,-1.425,740.237,-9.850,0.000,0.939,35.620,-0.359,0.000,0.041,0.361,0.006,0.001,-0.114,0.021,-84.493,-0.011,-0.005,0.038,0.000,0.000,0.000,0.000,0.000,0.000,-0.154,-0.005,0.380,0.000,1,1,1,1,0.001,0.006,0.060,0.283,0.002,0.002,-0.001,-0.001,0.283,0.002,0.000,0
20260703_205201,case01_boxes_2layer,6,62.2,1.000,8.007,632.372,-1.425,740.339,-9.853,0.000,0.940,35.633,-0.036,0.001,0.010,0.037,0.007,0.001,-0.115,0.020,-84.489,-0.008,-0.006,0.038,0.000,0.001,0.000,-0.001,0.008,-0.005,-0.155,-0.005,0.370,0.000,1,1,1,1,-0.003,-0.007,0.048,-0.212,0.002,0.002,-0.001,-0.001,0.212,0.002,0.000,0
20260703_205201,case01_boxes_2layer,6,62.2,1.000,8.114,631.312,-1.425,740.440,-9.924,0.000,0.947,35.890,-0.709,0.000,0.075,0.713,0.006,0.000,-0.115,0.020,-84.486,-0.005,-0.005,0.034,0.000,0.000,0.000,0.000,-0.009,0.005,-0.157,-0.005,0.370,0.000,1,1,1,1,0.001,0.006,0.059,0.279,0.002,0.002,-0.001,-0.001,0.279,0.002,0.000,0
20260703_205201,case01_boxes_2layer,6,62.2,1.000,8.215,630.316,-1.425,740.535,-9.956,0.000,0.951,36.005,-0.319,0.000,0.036,0.321,0.005,0.000,-0.116,0.019,-84.483,-0.002,-0.005,0.029,0.000,0.000,0.000,0.000,0.000,0.000,-0.157,-0.005,0.365,0.000,1,1,1,1,0.001,0.006,0.058,0.277,0.002,0.002,-0.001,-0.001,0.277,0.002,0.000,0
20260703_205201,case01_boxes_2layer,6,62.2,1.000,8.323,629.242,-1.425,740.638,-9.956,0.000,0.952,36.005,0.000,0.001,0.005,0.000,0.005,0.001,-0.116,0.019,-84.480,0.000,-0.004,0.028,0.000,0.001,0.000,-0.001,0.008,-0.005,-0.165,-0.005,0.355,0.000,1,1,1,1,-0.003,-0.006,0.047,-0.209,0.002,0.002,-0.001,-0.001,0.209,0.002,0.000,0
20260703_205201,case01_boxes_2layer,6,62.2,1.000,8.423,628.239,-1.425,740.734,-9.986,0.000,0.955,36.113,-0.297,0.000,0.032,0.299,0.004,0.000,-0.115,0.019,-84.478,0.002,-0.004,0.023,0.000,0.001,0.000,0.000,-0.001,0.000,-0.166,-0.005,0.351,0.000,1,1,1,1,-0.003,-0.006,0.046,-0.209,0.002,0.002,-0.001,-0.001,0.209,0.002,0.000,0
20260703_205201,case01_boxes_2layer,6,62.2,1.000,8.531,627.160,-1.425,740.837,-10.051,0.000,0.961,36.348,-0.649,0.000,0.066,0.652,0.003,0.000,-0.115,0.018,-84.475,0.005,-0.005,0.023,0.000,0.000,0.000,0.000,-0.009,0.005,-0.169,-0.005,0.351,0.000,1,1,1,1,0.001,0.005,0.056,0.270,0.002,0.002,-0.001,-0.001,0.270,0.002,0.000,0
20260703_205201,case01_boxes_2layer,6,62.2,1.000,8.651,625.955,-1.425,740.952,-10.083,0.000,0.965,36.466,-0.327,0.000,0.035,0.329,0.003,0.000,-0.114,0.018,-84.473,0.008,-0.005,0.019,0.000,0.000,0.000,0.000,-0.001,0.000,-0.160,-0.005,0.347,0.000,1,1,1,1,0.001,0.005,0.055,0.268,0.002,0.002,-0.001,-0.001,0.268,0.002,0.000,0
20260703_205201,case01_boxes_2layer,6,62.2,1.000,8.751,624.945,-1.425,741.049,-10.110,0.000,0.968,36.561,-0.262,0.000,0.026,0.263,0.001,0.000,-0.113,0.017,-84.472,0.009,-0.004,0.013,0.000,0.000,0.000,0.000,-0.001,0.000,-0.162,-0.005,0.343,0.000,1,1,1,1,0.001,0.005,0.054,0.266,0.002,0.002,-0.001,-0.001,0.266,0.002,0.000,0
20260703_205201,case01_boxes_2layer,6,62.2,1.000,8.855,623.894,-1.425,741.149,-10.135,0.000,0.970,36.652,-0.252,0.000,0.025,0.254,0.001,0.000,-0.112,0.017,-84.471,0.010,-0.003,0.008,0.000,0.000,0.000,0.000,-0.001,0.000,-0.163,-0.005,0.339,0.000,1,1,1,1,0.001,0.005,0.054,0.264,0.002,0.002,-0.001,-0.001,0.264,0.002,0.000,0
20260703_205201,case01_boxes_2layer,6,62.2,1.000,8.959,622.841,-1.425,741.250,-10.159,0.000,0.972,36.740,-0.243,0.000,0.024,0.245,0.000,0.000,-0.111,0.017,-84.471,0.011,-0.003,0.005,0.000,0.000,0.000,0.000,-0.001,0.000,-0.185,-0.006,0.335,0.000,1,1,1,1,0.001,0.005,0.053,0.262,0.002,0.002,-0.001,-0.001,0.262,0.002,0.000,0
20260703_205201,case01_boxes_2layer,6,62.2,1.000,9.062,621.789,-1.425,741.351,-10.152,0.000,0.972,36.716,0.068,0.000,-0.006,-0.068,0.000,0.000,-0.110,0.016,-84.471,0.012,-0.004,0.002,0.000,0.000,0.000,0.000,0.007,-0.005,-0.169,-0.006,0.327,0.000,1,1,1,1,-0.003,-0.006,0.043,-0.203,0.001,0.001,-0.001,-0.001,0.203,0.001,0.000,0
20260703_205201,case01_boxes_2layer,6,62.2,1.000,9.166,620.730,-1.425,741.452,-10.175,0.000,0.974,36.798,-0.227,0.000,0.021,0.228,-0.001,0.000,-0.109,0.016,-84.471,0.012,-0.004,0.000,0.000,0.000,0.000,0.000,-0.001,0.000,-0.191,-0.006,0.324,0.000,1,1,1,1,-0.003,-0.005,0.043,-0.202,0.002,0.002,-0.001,-0.001,0.202,0.002,0.000,0
20260703_205201,case01_boxes_2layer,6,62.2,1.000,9.266,619.709,-1.425,741.550,-10.197,0.000,0.976,36.877,-0.219,0.000,0.019,0.220,-0.003,0.000,-0.108,0.016,-84.471,0.011,-0.003,-0.004,0.000,0.000,0.000,0.000,-0.001,0.000,-0.195,-0.006,0.321,0.000,1,1,1,1,-0.003,-0.005,0.042,-0.201,0.002,0.002,-0.001,-0.001,0.201,0.002,0.000,0
20260703_205201,case01_boxes_2layer,6,62.2,1.000,9.367,618.686,-1.425,741.648,-10.218,0.000,0.978,36.954,-0.211,0.000,0.019,0.212,-0.002,0.000,-0.106,0.015,-84.472,0.011,-0.003,-0.008,0.000,0.000,0.000,0.000,0.000,0.000,-0.194,-0.006,0.318,0.000,1,1,1,1,-0.003,-0.005,0.042,-0.200,0.002,0.002,-0.001,-0.001,0.200,0.002,0.000,0
20260703_205201,case01_boxes_2layer,6,62.2,1.000,9.479,617.536,-1.425,741.758,-10.272,0.000,0.982,37.149,-0.542,-0.001,0.048,0.544,-0.005,0.000,-0.105,0.015,-84.473,0.011,-0.002,-0.014,0.000,-0.001,0.000,0.001,-0.009,0.005,-0.200,-0.006,0.319,0.000,1,1,1,1,0.001,0.005,0.051,0.254,0.002,0.002,-0.001,-0.001,0.254,0.002,0.000,0
20260703_205201,case01_boxes_2layer,6,62.2,1.000,9.583,616.470,-1.425,741.860,-10.262,0.000,0.981,37.112,0.103,0.000,-0.014,-0.104,-0.004,0.000,-0.104,0.015,-84.475,0.010,-0.003,-0.015,0.000,0.000,0.000,0.000,0.007,-0.005,-0.205,-0.006,0.311,0.000,1,1,1,1,-0.002,-0.005,0.041,-0.198,0.002,0.002,-0.001,-0.001,0.198,0.002,0.000,0
20260703_205201,case01_boxes_2layer,6,62.2,1.000,9.683,615.439,-1.425,741.958,-10.281,0.000,0.982,37.180,-0.188,0.000,0.014,0.188,-0.004,0.000,-0.103,0.014,-84.477,0.008,-0.003,-0.019,0.000,0.000,0.000,0.000,0.000,0.000,-0.204,-0.006,0.309,0.000,1,1,1,1,-0.002,-0.005,0.041,-0.197,0.002,0.002,-0.001,-0.001,0.197,0.002,0.000,0
20260703_205201,case01_boxes_2layer,6,62.2,1.000,9.787,614.368,-1.425,742.061,-10.299,0.000,0.984,37.245,-0.181,0.000,0.013,0.182,-0.004,0.000,-0.103,0.014,-84.479,0.008,-0.003,-0.021,0.000,0.000,0.000,0.000,0.000,0.000,-0.204,-0.007,0.306,0.000,1,1,1,1,-0.002,-0.005,0.041,-0.197,0.002,0.002,-0.001,-0.001,0.197,0.002,0.000,0
20260703_205201,case01_boxes_2layer,6,62.2,1.000,9.895,613.254,-1.425,742.167,-10.349,0.000,0.988,37.427,-0.504,-0.001,0.042,0.505,-0.006,0.000,-0.102,0.014,-84.481,0.006,-0.002,-0.026,0.000,-0.001,0.000,0.001,-0.008,0.005,-0.210,-0.007,0.307,0.000,1,1,1,1,0.001,0.005,0.049,0.247,0.002,0.002,-0.001,-0.001,0.247,0.002,0.000,0
20260703_205201,case01_boxes_2layer,6,62.2,1.000,10.022,611.935,-1.425,742.293,-10.340,0.000,0.986,37.392,0.095,0.000,-0.017,-0.096,-0.008,0.000,-0.101,0.014,-84.485,0.006,-0.002,-0.036,0.000,0.000,0.000,0.000,0.007,-0.005,-0.201,-0.007,0.300,0.000,1,1,1,1,-0.002,-0.005,0.040,-0.195,0.001,0.001,-0.001,-0.001,0.195,0.001,0.000,0
20260703_205201,case01_boxes_2layer,6,62.2,1.000,10.130,610.812,-1.425,742.400,-10.388,0.000,0.990,37.567,-0.484,-0.001,0.039,0.486,-0.008,0.000,-0.101,0.013,-84.488,0.004,-0.003,-0.031,0.000,-0.001,0.000,0.001,-0.008,0.005,-0.205,-0.007,0.302,0.000,1,1,1,1,0.001,0.005,0.048,0.244,0.002,0.002,-0.001,-0.001,0.244,0.002,0.000,0
20260703_205201,case01_boxes_2layer,6,62.2,1.000,10.249,609.584,-1.425,742.517,-10.374,0.000,0.988,37.516,0.140,0.000,-0.021,-0.141,-0.008,0.000,-0.101,0.013,-84.492,0.002,-0.003,-0.040,0.000,0.000,0.000,0.000,0.007,-0.005,-0.210,-0.007,0.295,0.000,1,1,1,1,-0.002,-0.005,0.039,-0.193,0.001,0.001,-0.001,-0.001,0.193,0.001,0.000,0
20260703_205201,case01_boxes_2layer,6,62.2,1.000,10.359,608.434,-1.425,742.626,-10.421,0.000,0.992,37.685,-0.468,-0.001,0.036,0.469,-0.009,0.000,-0.101,0.013,-84.496,0.001,-0.001,-0.042,0.000,-0.001,0.000,0.001,-0.008,0.005,-0.213,-0.007,0.297,0.000,1,1,1,1,0.001,0.004,0.047,0.242,0.002,0.002,-0.001,-0.001,0.242,0.002,0.000,0
20260703_205201,case01_boxes_2layer,6,62.2,1.000,10.467,607.315,-1.425,742.733,-10.406,0.000,0.989,37.630,0.150,0.000,-0.023,-0.152,-0.008,0.000,-0.101,0.013,-84.500,0.000,-0.003,-0.040,0.000,0.000,0.000,0.000,0.007,-0.005,-0.218,-0.007,0.290,0.000,1,1,1,1,-0.002,-0.005,0.039,-0.191,0.002,0.002,-0.001,-0.001,0.191,0.002,0.000,0
20260703_205201,case01_boxes_2layer,6,62.2,1.000,10.575,606.189,-1.425,742.840,-10.451,0.000,0.993,37.794,-0.452,0.000,0.033,0.453,-0.010,0.000,-0.101,0.012,-84.505,-0.001,-0.002,-0.045,0.000,-0.001,0.000,0.001,-0.008,0.005,-0.224,-0.008,0.292,0.000,1,1,1,1,0.001,0.004,0.047,0.239,0.002,0.002,-0.001,-0.001,0.239,0.002,0.000,0
20260703_205201,case01_boxes_2layer,6,62.2,1.000,10.678,605.107,-1.425,742.943,-10.464,0.000,0.993,37.840,-0.130,0.000,0.002,0.129,-0.010,0.000,-0.101,0.012,-84.509,-0.001,-0.002,-0.048,0.000,-0.001,0.000,0.000,-0.001,0.000,-0.225,-0.008,0.291,0.000,1,1,1,1,0.001,0.004,0.046,0.238,0.002,0.002,-0.001,-0.001,0.238,0.002,0.000,0
20260703_205201,case01_boxes_2layer,6,62.2,1.000,10.787,603.972,-1.425,743.050,-10.448,0.000,0.990,37.781,0.163,0.000,-0.027,-0.165,-0.011,0.000,-0.101,0.012,-84.515,-0.002,-0.003,-0.051,0.000,0.000,0.000,0.000,0.007,-0.005,-0.227,-0.008,0.284,0.000,1,1,1,1,-0.002,-0.005,0.038,-0.189,0.002,0.002,-0.001,-0.001,0.189,0.002,0.000,0
20260703_205201,case01_boxes_2layer,6,62.2,1.000,10.895,602.842,-1.425,743.157,-10.491,0.000,0.993,37.937,-0.432,0.000,0.030,0.433,-0.011,0.000,-0.101,0.012,-84.520,-0.002,-0.002,-0.055,0.000,-0.001,0.000,0.000,-0.008,0.005,-0.233,-0.008,0.287,0.000,1,1,1,1,0.001,0.004,0.046,0.236,0.002,0.002,-0.001,-0.001,0.236,0.002,0.000,0
20260703_205201,case01_boxes_2layer,6,62.2,1.000,10.999,601.754,-1.425,743.260,-10.503,0.000,0.993,37.978,-0.115,0.000,0.000,0.115,-0.011,0.000,-0.101,0.012,-84.526,-0.002,-0.001,-0.056,0.000,-0.001,0.000,0.000,0.000,0.000,-0.231,-0.008,0.285,0.000,1,1,1,1,0.001,0.004,0.046,0.235,0.002,0.002,-0.001,-0.001,0.235,0.002,0.000,0
20260703_205201,case01_boxes_2layer,6,62.2,1.000,11.107,600.617,-1.425,743.368,-10.485,0.000,0.990,37.915,0.175,0.000,-0.028,-0.177,-0.012,0.000,-0.102,0.011,-84.532,-0.002,-0.002,-0.059,0.000,-0.001,0.000,0.000,0.007,-0.005,-0.233,-0.008,0.279,0.000,1,1,1,1,-0.002,-0.005,0.037,-0.187,0.002,0.002,-0.001,-0.001,0.187,0.002,0.000,0
20260703_205201,case01_boxes_2layer,6,62.2,1.000,11.210,599.530,-1.425,743.470,-10.527,0.000,0.993,38.064,-0.414,0.000,0.027,0.415,-0.013,0.000,-0.102,0.011,-84.538,-0.002,-0.002,-0.059,0.000,-0.001,0.000,0.000,-0.008,0.005,-0.237,-0.008,0.281,0.000,1,1,1,1,0.001,0.004,0.045,0.232,0.002,0.002,-0.001,-0.001,0.232,0.002,0.000,0
20260703_205201,case01_boxes_2layer,6,62.2,1.000,11.319,598.394,-1.425,743.578,-10.537,0.000,0.993,38.101,-0.103,0.000,-0.002,0.102,-0.012,0.000,-0.102,0.011,-84.544,-0.002,-0.001,-0.067,0.000,-0.001,0.000,0.000,0.000,0.000,-0.236,-0.008,0.280,0.000,1,1,1,1,0.001,0.004,0.045,0.231,0.002,0.002,-0.001,-0.001,0.231,0.002,0.000,0
20260703_205201,case01_boxes_2layer,6,62.2,1.000,11.427,597.253,-1.425,743.685,-10.518,0.000,0.990,38.033,0.185,0.000,-0.031,-0.187,-0.014,0.000,-0.102,0.011,-84.551,-0.001,-0.002,-0.067,0.000,-0.001,0.000,0.000,0.007,-0.005,-0.241,-0.008,0.274,0.000,1,1,1,1,-0.002,-0.004,0.037,-0.185,0.002,0.002,-0.001,-0.001,0.185,0.002,0.000,0
20260703_205201,case01_boxes_2layer,6,62.2,1.000,11.531,596.158,-1.425,743.788,-10.558,0.000,0.992,38.177,-0.398,0.000,0.023,0.398,-0.014,0.000,-0.102,0.011,-84.558,-0.001,-0.002,-0.067,0.000,-0.002,0.000,0.000,-0.008,0.005,-0.246,-0.008,0.277,0.000,1,1,1,1,0.001,0.004,0.044,0.229,0.002,0.002,-0.001,-0.001,0.229,0.002,0.000,0
20260703_205201,case01_boxes_2layer,6,62.2,1.000,11.640,595.010,-1.425,743.896,-10.567,0.000,0.992,38.209,-0.091,0.000,-0.006,0.090,-0.014,0.000,-0.102,0.011,-84.565,0.000,0.000,-0.076,0.000,-0.002,0.000,0.000,-0.001,0.000,-0.245,-0.008,0.276,0.000,1,1,1,1,0.001,0.004,0.044,0.229,0.002,0.002,-0.001,-0.001,0.229,0.002,0.000,0
20260703_205201,case01_boxes_2layer,6,62.2,1.000,11.746,593.883,-1.425,744.002,-10.548,0.000,0.988,38.139,0.193,0.000,-0.032,-0.196,-0.014,0.000,-0.102,0.010,-84.573,0.000,-0.002,-0.074,0.000,-0.001,0.000,0.000,0.007,-0.004,-0.246,-0.008,0.270,0.000,1,1,1,1,-0.002,-0.004,0.036,-0.183,0.001,0.001,0.000,0.000,0.183,0.001,0.000,0
20260703_205201,case01_boxes_2layer,6,62.2,1.000,11.855,592.739,-1.425,744.108,-10.586,0.000,0.990,38.277,-0.383,0.000,0.021,0.383,-0.015,0.000,-0.102,0.010,-84.580,0.001,-0.001,-0.078,0.000,-0.002,0.000,0.000,-0.007,0.004,-0.247,-0.008,0.273,0.000,1,1,1,1,0.001,0.004,0.044,0.227,0.002,0.002,-0.001,-0.001,0.227,0.002,0.000,0
20260703_205201,case01_boxes_2layer,6,62.2,1.000,11.967,591.555,-1.425,744.219,-10.566,0.000,0.987,38.205,0.199,0.000,-0.034,-0.201,-0.015,0.000,-0.102,0.010,-84.589,0.001,-0.002,-0.082,0.000,-0.001,0.000,0.000,0.007,-0.004,-0.250,-0.008,0.267,0.000,1,1,1,1,-0.002,-0.004,0.036,-0.182,0.002,0.002,0.000,0.000,0.182,0.002,0.000,0
20260703_205201,case01_boxes_2layer,6,62.2,1.000,12.071,590.452,-1.425,744.322,-10.604,0.000,0.989,38.339,-0.374,0.000,0.019,0.374,-0.016,0.000,-0.102,0.010,-84.596,0.002,-0.002,-0.077,0.000,-0.002,0.000,0.000,-0.007,0.004,-0.255,-0.009,0.270,0.000,1,1,1,1,0.001,0.004,0.043,0.225,0.002,0.002,-0.001,-0.001,0.225,0.002,0.000,0
20260703_205201,case01_boxes_2layer,6,62.2,1.000,12.175,589.352,-1.425,744.425,-10.611,0.000,0.988,38.366,-0.075,0.000,-0.009,0.074,-0.016,0.000,-0.102,0.010,-84.604,0.002,-0.001,-0.081,0.000,-0.002,0.000,0.000,0.000,0.000,-0.255,-0.009,0.269,0.000,1,1,1,1,0.001,0.004,0.043,0.224,0.002,0.002,-0.001,-0.001,0.224,0.002,0.000,0
20260703_205201,case01_boxes_2layer,6,62.2,1.000,12.287,588.165,-1.425,744.535,-10.591,0.000,0.984,38.291,0.205,0.000,-0.037,-0.208,-0.018,0.000,-0.101,0.010,-84.613,0.003,-0.002,-0.089,0.000,-0.001,0.000,0.000,0.006,-0.004,-0.259,-0.009,0.264,0.000,1,1,1,1,-0.002,-0.004,0.035,-0.180,0.002,0.002,0.000,0.000,0.180,0.002,0.000,0
20260703_205201,case01_boxes_2layer,6,62.2,1.000,12.418,586.776,-1.425,744.664,-10.628,0.000,0.986,38.426,-0.375,0.000,0.014,0.375,-0.022,0.000,-0.101,0.010,-84.624,0.004,-0.001,-0.110,0.000,-0.002,0.000,0.000,-0.007,0.004,-0.275,-0.009,0.267,0.000,1,1,1,1,0.001,0.004,0.043,0.222,0.002,0.002,-0.001,-0.001,0.222,0.002,0.000,0
20260703_205201,case01_boxes_2layer,6,62.2,1.000,12.546,585.408,-1.425,744.791,-10.609,0.000,0.982,38.354,0.197,0.000,-0.040,-0.200,-0.021,0.000,-0.100,0.010,-84.635,0.004,-0.002,-0.110,0.000,-0.001,0.000,0.000,0.006,-0.004,-0.258,-0.009,0.261,0.000,1,1,1,1,-0.002,-0.004,0.035,-0.179,0.001,0.001,0.000,0.000,0.179,0.001,0.000,0
20260703_205201,case01_boxes_2layer,6,62.2,1.000,12.658,584.216,-1.425,744.901,-10.644,0.000,0.983,38.481,-0.353,0.000,0.014,0.352,-0.019,0.000,-0.100,0.010,-84.645,0.004,0.000,-0.100,0.000,-0.002,0.000,0.000,-0.007,0.004,-0.262,-0.009,0.264,0.000,1,1,1,1,0.001,0.004,0.042,0.221,0.002,0.002,-0.001,-0.001,0.221,0.002,0.000,0
20260703_205201,case01_boxes_2layer,6,62.2,1.000,12.770,583.031,-1.425,745.010,-10.622,0.000,0.979,38.403,0.214,0.000,-0.041,-0.217,-0.021,0.000,-0.100,0.009,-84.655,0.004,-0.002,-0.100,0.000,-0.001,0.000,0.000,0.006,-0.004,-0.296,-0.009,0.259,0.000,1,1,1,1,-0.002,-0.004,0.035,-0.178,0.002,0.002,0.000,0.000,0.178,0.002,0.000,0
20260703_205201,case01_boxes_2layer,6,62.2,1.000,12.871,581.961,-1.425,745.109,-10.657,0.000,0.980,38.527,-0.346,0.000,0.006,0.345,-0.026,0.000,-0.099,0.009,-84.665,0.004,-0.001,-0.098,0.000,-0.002,0.000,0.000,-0.008,0.004,-0.299,-0.010,0.262,0.000,1,1,1,1,0.001,0.004,0.042,0.219,0.002,0.002,-0.001,-0.001,0.219,0.002,0.000,0
20260703_205201,case01_boxes_2layer,6,62.2,1.000,12.991,580.674,-1.425,745.227,-10.664,0.000,0.977,38.551,-0.068,0.000,-0.023,0.065,-0.029,0.000,-0.099,0.009,-84.678,0.006,-0.001,-0.129,0.000,-0.002,0.000,0.000,-0.001,0.000,-0.302,-0.010,0.261,0.000,1,1,1,1,0.001,0.004,0.042,0.219,0.002,0.002,-0.001,-0.001,0.219,0.002,0.000,0
20260703_205201,case01_boxes_2layer,6,62.2,1.000,13.095,579.575,-1.425,745.328,-10.669,0.000,0.976,38.570,-0.054,0.000,-0.017,0.052,-0.022,0.000,-0.098,0.009,-84.690,0.006,-0.001,-0.116,0.000,-0.002,0.000,0.000,-0.001,0.000,-0.294,-0.010,0.261,0.000,1,1,1,1,0.001,0.004,0.042,0.218,0.002,0.002,-0.001,-0.001,0.218,0.002,0.000,0
20260703_205201,case01_boxes_2layer,6,62.2,1.000,13.203,578.422,-1.425,745.433,-10.647,0.000,0.971,38.489,0.220,0.000,-0.043,-0.223,-0.022,0.000,-0.098,0.009,-84.702,0.005,0.000,-0.124,0.000,-0.002,0.000,0.000,0.007,-0.004,-0.289,-0.010,0.256,0.000,1,1,1,1,-0.002,-0.004,0.034,-0.176,0.001,0.001,0.000,0.000,0.176,0.001,0.000,0
20260703_205201,case01_boxes_2layer,6,62.2,1.000,13.342,576.936,-1.425,745.568,-10.654,0.000,0.969,38.514,-0.071,0.000,-0.021,0.068,-0.028,0.000,-0.097,0.009,-84.718,0.006,-0.001,-0.159,0.000,-0.002,0.000,0.000,0.000,0.000,-0.302,-0.010,0.255,0.000,1,1,1,1,-0.002,-0.004,0.034,-0.175,0.002,0.002,0.000,0.000,0.175,0.002,0.000,0
20260703_205201,case01_boxes_2layer,6,62.2,1.000,13.450,575.780,-1.425,745.673,-10.687,0.000,0.970,38.632,-0.329,-0.001,0.008,0.328,-0.022,-0.001,-0.097,0.009,-84.730,0.004,-0.002,-0.120,0.000,-0.002,0.000,0.000,-0.007,0.004,-0.301,-0.010,0.258,0.000,1,1,1,1,0.001,0.004,0.041,0.216,0.002,0.002,-0.001,-0.001,0.216,0.002,0.000,0
20260703_205201,case01_boxes_2layer,6,62.2,1.000,13.550,574.712,-1.425,745.770,-10.692,0.000,0.969,38.648,-0.046,0.000,-0.016,0.044,-0.020,0.000,-0.096,0.009,-84.741,0.003,-0.001,-0.112,0.000,-0.002,0.000,0.000,0.000,0.000,-0.294,-0.010,0.257,0.000,1,1,1,1,0.001,0.004,0.041,0.215,0.002,0.002,-0.001,-0.001,0.215,0.002,0.000,0
20260703_205201,case01_boxes_2layer,6,62.2,1.000,13.651,573.643,-1.425,745.867,-10.696,0.000,0.967,38.663,-0.044,0.000,-0.017,0.043,-0.021,0.000,-0.096,0.009,-84.752,0.002,-0.001,-0.111,0.000,-0.002,0.000,0.000,0.000,0.000,-0.288,-0.010,0.257,0.000,1,1,1,1,0.001,0.004,0.041,0.215,0.002,0.002,-0.001,-0.001,0.215,0.002,0.000,0
20260703_205201,case01_boxes_2layer,6,62.2,1.000,13.755,572.532,-1.425,745.967,-10.701,0.000,0.965,38.678,-0.043,0.000,-0.017,0.041,-0.021,0.000,-0.096,0.009,-84.764,0.002,0.000,-0.117,0.000,-0.002,0.000,0.000,0.000,0.000,-0.283,-0.010,0.256,0.000,1,1,1,1,0.001,0.004,0.041,0.214,0.002,0.002,-0.001,-0.001,0.214,0.002,0.000,0
20260703_205201,case01_boxes_2layer,6,62.2,1.000,13.855,571.461,-1.425,746.064,-10.705,0.000,0.963,38.692,-0.041,0.000,-0.019,0.039,-0.022,0.000,-0.096,0.009,-84.775,0.001,-0.001,-0.112,0.000,-0.002,0.000,0.000,0.000,0.000,-0.311,-0.009,0.256,0.000,1,1,1,1,0.001,0.004,0.041,0.214,0.002,0.002,-0.001,-0.001,0.214,0.002,0.000,0
20260703_205201,case01_boxes_2layer,6,62.2,1.000,13.967,570.264,-1.425,746.171,-10.682,0.000,0.959,38.609,0.229,0.000,-0.045,-0.233,-0.024,0.000,-0.096,0.009,-84.788,0.001,-0.001,-0.127,0.000,-0.002,0.000,0.000,0.006,-0.004,-0.313,-0.010,0.251,0.000,1,1,1,1,-0.002,-0.004,0.034,-0.173,0.002,0.002,0.000,0.000,0.173,0.002,0.000,0
20260703_205201,case01_boxes_2layer,6,62.2,1.000,14.079,569.066,-1.425,746.278,-10.713,0.000,0.959,38.722,-0.315,0.000,0.004,0.314,-0.025,0.000,-0.096,0.009,-84.801,0.000,0.000,-0.129,0.000,-0.002,0.000,0.000,-0.007,0.004,-0.316,-0.010,0.254,0.000,1,1,1,1,0.001,0.004,0.041,0.213,0.002,0.002,-0.001,-0.001,0.213,0.002,0.000,0
20260703_205201,case01_boxes_2layer,6,62.2,1.000,14.197,567.800,-1.425,746.392,-10.718,0.000,0.957,38.737,-0.044,0.000,-0.024,0.042,-0.027,0.000,-0.096,0.008,-84.814,0.000,-0.001,-0.138,0.000,-0.002,0.000,0.000,0.000,0.000,-0.297,-0.010,0.254,0.000,1,1,1,1,0.001,0.004,0.041,0.213,0.002,0.002,-0.001,-0.001,0.213,0.002,0.000,0
20260703_205201,case01_boxes_2layer,6,62.2,1.000,14.303,566.667,-1.425,746.493,-10.694,0.000,0.952,38.652,0.233,0.000,-0.047,-0.236,-0.026,0.000,-0.096,0.008,-84.827,0.000,0.000,-0.126,0.000,-0.002,0.000,0.000,0.006,-0.004,-0.299,-0.010,0.249,0.000,1,1,1,1,-0.002,-0.004,0.034,-0.172,0.002,0.002,0.000,0.000,0.172,0.002,0.000,0
20260703_205201,case01_boxes_2layer,6,62.2,1.000,14.410,565.516,-1.425,746.595,-10.725,0.000,0.952,38.763,-0.309,0.000,0.001,0.308,-0.027,0.000,-0.096,0.008,-84.840,-0.001,-0.002,-0.130,0.000,-0.002,0.000,0.000,-0.007,0.004,-0.301,-0.010,0.253,0.000,1,1,1,1,0.001,0.004,0.041,0.212,0.002,0.002,-0.001,-0.001,0.212,0.002,0.000,0
20260703_205201,case01_boxes_2layer,6,62.2,1.000,14.511,564.439,-1.425,746.690,-10.729,0.000,0.950,38.774,-0.033,0.000,-0.023,0.031,-0.026,0.000,-0.096,0.008,-84.853,0.000,-0.001,-0.125,0.000,-0.003,0.000,0.000,-0.001,0.000,-0.331,-0.010,0.252,0.000,1,1,1,1,0.001,0.004,0.041,0.211,0.002,0.002,-0.001,-0.001,0.211,0.002,0.000,0
20260703_205201,case01_boxes_2layer,6,62.2,1.000,14.615,563.323,-1.425,746.789,-10.732,0.000,0.948,38.785,-0.032,0.000,-0.022,0.030,-0.025,0.000,-0.096,0.008,-84.866,0.000,0.000,-0.134,0.000,-0.003,0.000,0.000,0.000,0.000,-0.327,-0.011,0.252,0.000,1,1,1,1,0.001,0.004,0.040,0.211,0.002,0.002,-0.001,-0.001,0.211,0.002,0.000,0
20260703_205201,case01_boxes_2layer,6,62.2,1.000,14.723,562.168,-1.425,746.891,-10.708,0.000,0.943,38.698,0.236,0.000,-0.049,-0.239,-0.028,0.000,-0.096,0.008,-84.880,0.000,0.000,-0.140,0.000,-0.002,0.000,0.000,0.006,-0.004,-0.333,-0.011,0.247,0.000,1,1,1,1,-0.002,-0.004,0.033,-0.171,0.002,0.002,0.000,0.000,0.171,0.002,0.000,0
20260703_205201,case01_boxes_2layer,6,62.2,1.000,14.833,560.981,-1.425,746.995,-10.738,0.000,0.942,38.807,-0.302,0.000,-0.003,0.301,-0.030,0.000,-0.096,0.008,-84.895,0.001,-0.001,-0.147,0.000,-0.003,0.000,0.000,-0.007,0.004,-0.333,-0.011,0.251,0.000,1,1,1,1,0.001,0.004,0.040,0.210,0.002,0.002,-0.001,-0.001,0.210,0.002,0.000,0
20260703_205201,case01_boxes_2layer,6,62.2,1.000,14.938,559.859,-1.425,747.094,-10.741,0.000,0.940,38.816,-0.028,0.000,-0.024,0.026,-0.026,0.000,-0.096,0.008,-84.909,0.001,0.000,-0.144,0.000,-0.003,0.000,0.000,0.000,0.000,-0.329,-0.011,0.250,0.000,1,1,1,1,0.001,0.004,0.040,0.210,0.002,0.002,-0.001,-0.001,0.210,0.002,0.000,0
20260703_205201,case01_boxes_2layer,6,62.2,1.000,15.055,558.606,-1.425,747.203,-10.745,0.000,0.937,38.827,-0.033,0.000,-0.030,0.030,-0.032,0.000,-0.096,0.008,-84.925,0.001,-0.001,-0.161,0.000,-0.003,0.000,0.000,0.000,0.000,-0.339,-0.011,0.250,0.000,1,1,1,1,0.001,0.004,0.040,0.209,0.002,0.002,-0.001,-0.001,0.209,0.002,0.000,0
20260703_205201,case01_boxes_2layer,6,62.2,1.000,15.175,557.320,-1.425,747.315,-10.748,0.000,0.934,38.837,-0.032,0.000,-0.031,0.029,-0.034,0.000,-0.096,0.008,-84.942,0.002,-0.001,-0.169,0.000,-0.003,0.000,0.000,-0.001,0.000,-0.347,-0.012,0.249,0.000,1,1,1,1,0.001,0.004,0.040,0.209,0.002,0.002,-0.001,-0.001,0.209,0.002,0.000,0
20260703_205201,case01_boxes_2layer,6,62.2,1.000,15.283,556.160,-1.425,747.416,-10.724,0.000,0.929,38.750,0.239,0.000,-0.052,-0.243,-0.031,0.000,-0.095,0.008,-84.958,0.002,0.000,-0.156,0.000,-0.002,0.000,0.000,0.006,-0.004,-0.348,-0.012,0.245,0.000,1,1,1,1,-0.002,-0.004,0.033,-0.170,0.002,0.002,0.000,0.000,0.170,0.002,0.000,0
20260703_205201,case01_boxes_2layer,6,62.2,1.000,15.387,555.043,-1.425,747.512,-10.726,0.000,0.926,38.758,-0.025,0.000,-0.026,0.022,-0.028,0.000,-0.095,0.008,-84.973,0.002,-0.001,-0.151,0.000,-0.002,0.000,0.000,0.000,0.000,-0.342,-0.012,0.245,0.000,1,1,1,1,-0.002,-0.004,0.033,-0.170,0.002,0.002,0.000,0.000,0.170,0.002,0.000,0
20260703_205201,case01_boxes_2layer,6,62.2,1.000,15.495,553.881,-1.425,747.612,-10.756,0.000,0.925,38.863,-0.293,0.000,-0.007,0.291,-0.032,0.000,-0.095,0.008,-84.989,0.002,0.000,-0.161,0.000,-0.003,0.000,0.000,-0.007,0.004,-0.346,-0.012,0.248,0.000,1,1,1,1,0.001,0.004,0.040,0.208,0.002,0.002,-0.001,-0.001,0.208,0.002,0.000,0
20260703_205201,case01_boxes_2layer,6,62.2,1.000,15.598,552.768,-1.425,747.708,-10.758,0.000,0.923,38.870,-0.023,0.000,-0.029,0.020,-0.031,0.000,-0.095,0.008,-85.005,0.003,0.000,-0.157,0.000,-0.003,0.000,0.000,-0.001,0.000,-0.343,-0.012,0.248,0.000,1,1,1,1,0.001,0.004,0.040,0.208,0.002,0.002,0.000,0.000,0.208,0.002,0.000,0
20260703_205201,case01_boxes_2layer,6,62.2,1.000,15.707,551.607,-1.425,747.807,-10.734,0.000,0.917,38.782,0.241,0.000,-0.054,-0.245,-0.033,0.000,-0.094,0.008,-85.021,0.003,-0.001,-0.165,0.000,-0.002,0.000,0.000,0.006,-0.004,-0.345,-0.012,0.244,0.000,1,1,1,1,-0.002,-0.004,0.033,-0.169,0.002,0.002,0.000,0.000,0.169,0.002,0.000,0
20260703_205201,case01_boxes_2layer,6,62.2,1.000,15.826,550.317,-1.425,747.917,-10.736,0.000,0.914,38.790,-0.026,0.000,-0.034,0.023,-0.036,0.000,-0.094,0.008,-85.040,0.003,0.000,-0.188,0.000,-0.002,0.000,0.000,0.000,0.000,-0.350,-0.012,0.244,0.000,1,1,1,1,-0.002,-0.004,0.033,-0.169,0.002,0.002,0.000,0.000,0.169,0.002,0.000,0
20260703_205201,case01_boxes_2layer,6,62.2,1.000,15.927,549.239,-1.425,748.009,-10.738,0.000,0.911,38.797,-0.021,0.000,-0.030,0.018,-0.031,0.000,-0.094,0.008,-85.056,0.003,0.000,-0.159,0.000,-0.002,0.000,0.000,0.000,0.000,-0.348,-0.012,0.243,0.000,1,1,1,1,-0.002,-0.004,0.033,-0.168,0.002,0.002,0.000,0.000,0.168,0.002,0.000,0
20260703_205201,case01_boxes_2layer,6,62.2,1.000,16.035,548.078,-1.425,748.107,-10.767,0.000,0.910,38.899,-0.287,0.000,-0.011,0.285,-0.035,0.000,-0.093,0.008,-85.073,0.003,0.000,-0.174,0.000,-0.003,0.000,0.000,-0.007,0.004,-0.382,-0.012,0.247,0.000,1,1,1,1,0.001,0.004,0.040,0.207,0.003,0.003,0.000,0.000,0.207,0.003,0.000,0
20260703_205201,case01_boxes_2layer,6,62.2,1.000,16.135,547.019,-1.205,748.196,-10.309,-0.057,0.817,37.230,4.580,-0.567,-0.931,-4.654,-0.527,-0.468,-0.875,-1.326,-85.079,-7.814,-13.335,-0.057,0.008,-0.010,-0.061,0.082,-0.070,-0.609,-0.817,-0.027,0.295,0.000,1,1,1,1,0.000,-0.352,0.136,0.027,-0.002,0.002,0.002,0.002,0.352,0.002,0.023,0
20260703_205201,case01_boxes_2layer,6,62.2,1.000,16.247,545.877,-1.213,748.287,-10.190,-0.645,0.818,36.874,1.196,-5.885,0.015,-1.371,0.201,-5.844,-0.825,-1.768,-85.140,0.499,-4.417,-0.607,-0.004,-0.011,-0.019,-0.122,-0.010,0.418,-0.573,-0.019,0.325,0.000,0,0,1,1,0.000,0.000,0.049,0.029,0.000,0.000,0.001,0.001,0.049,0.001,0.000,0
20260703_205201,case01_boxes_2layer,6,62.2,1.000,16.354,544.779,-1.296,748.375,-10.201,-0.870,0.815,36.973,-0.114,-2.245,-0.029,0.042,-0.006,-2.248,-0.819,-1.750,-85.199,0.059,0.171,-0.595,0.003,-0.008,0.025,0.070,0.031,0.440,-0.378,-0.012,0.319,0.000,0,0,1,1,0.000,0.000,0.036,-0.050,0.000,0.000,0.001,0.001,0.050,0.001,0.000,0
20260703_205201,case01_boxes_2layer,6,62.2,1.000,16.463,543.673,-1.396,748.464,-10.245,-0.947,0.816,37.156,-0.441,-0.772,0.010,0.421,-0.015,-0.783,-0.838,-1.446,-85.240,-0.190,3.043,-0.409,0.012,-0.006,0.074,0.088,0.021,0.492,-0.269,-0.009,0.322,0.000,0,0,1,1,0.000,0.000,0.058,0.411,0.000,0.000,0.000,0.000,0.411,0.000,0.000,0
20260703_205201,case01_boxes_2layer,6,62.2,1.000,16.571,542.568,-1.468,748.552,-10.186,-0.307,0.824,36.804,0.594,6.400,0.073,-0.497,0.027,6.409,-0.843,-0.801,-85.270,-0.052,6.448,-0.299,0.004,-0.004,0.120,-0.076,0.018,0.458,-0.212,-0.007,0.320,0.000,1,1,1,1,-0.030,-0.017,0.028,-0.254,-0.003,-0.003,0.000,0.000,0.254,0.003,0.000,0
20260703_205201,case01_boxes_2layer,6,62.2,1.000,16.679,541.463,-1.483,748.642,-10.212,0.007,0.832,36.884,-0.260,3.138,0.089,0.273,0.023,3.138,-0.809,-0.125,-85.293,0.338,6.762,-0.231,0.002,-0.002,0.096,-0.017,0.018,-0.240,-0.181,-0.006,0.317,0.000,1,1,1,1,-0.004,-0.072,0.043,-0.232,-0.002,-0.002,0.000,0.000,0.232,0.002,0.000,0
20260703_205201,case01_boxes_2layer,6,62.2,1.000,16.786,540.355,-1.468,748.733,-10.291,0.240,0.843,37.183,-0.797,2.329,0.102,0.788,0.005,2.334,-0.773,0.357,-85.308,0.361,4.819,-0.147,-0.001,-0.003,0.061,-0.039,-0.005,-0.347,-0.147,-0.005,0.321,0.000,1,1,1,1,0.005,0.279,0.067,0.195,0.000,0.000,-0.001,-0.001,0.279,0.001,0.000,0
20260703_205201,case01_boxes_2layer,6,62.2,1.000,16.894,539.245,-1.437,748.823,-10.274,0.300,0.845,37.127,0.172,0.601,0.019,-0.176,0.025,0.599,-0.725,0.620,-85.318,0.478,2.637,-0.097,-0.007,-0.001,0.026,-0.056,0.020,-0.351,-0.126,-0.004,0.309,0.000,1,1,1,1,-0.002,-0.223,0.070,0.008,-0.001,-0.001,0.000,0.000,0.223,0.001,0.000,0
20260703_205201,case01_boxes_2layer,6,62.2,1.000,17.003,538.131,-1.408,748.915,-10.321,0.221,0.852,37.290,-0.467,-0.788,0.072,0.481,0.042,-0.781,-0.658,0.692,-85.323,0.677,0.719,-0.060,-0.013,-0.001,-0.001,-0.059,-0.002,-0.270,-0.114,-0.004,0.309,0.000,1,1,1,1,0.001,0.105,0.076,0.042,0.000,0.000,-0.001,-0.001,0.105,0.001,0.000,0
20260703_205201,case01_boxes_2layer,6,62.2,1.000,17.106,537.058,-1.392,749.003,-10.336,0.094,0.856,37.339,-0.152,-1.269,0.047,0.169,0.047,-1.267,-0.572,0.627,-85.326,0.863,-0.650,-0.027,-0.018,0.000,-0.018,-0.046,0.006,-0.168,-0.116,-0.004,0.306,0.000,1,1,1,1,0.000,0.002,0.068,0.035,0.000,0.000,-0.001,-0.001,0.068,0.001,0.000,0
20260703_205201,case01_boxes_2layer,6,62.2,1.000,17.218,535.901,-1.389,749.099,-10.356,-0.038,0.862,37.412,-0.204,-1.323,0.054,0.219,0.048,-1.321,-0.459,0.469,-85.326,1.121,-1.588,-0.001,-0.021,0.000,-0.027,-0.033,0.003,-0.097,-0.124,-0.004,0.303,0.000,1,1,1,1,0.000,0.000,0.056,0.032,0.001,0.001,-0.001,-0.001,0.056,0.001,0.000,0
20260703_205201,case01_boxes_2layer,6,62.2,1.000,17.326,534.782,-1.398,749.192,-10.375,-0.120,0.866,37.481,-0.183,-0.814,0.043,0.190,0.033,-0.813,-0.340,0.279,-85.325,1.191,-1.891,0.010,-0.022,0.000,-0.029,-0.011,0.001,-0.020,-0.157,-0.005,0.300,0.000,1,1,1,1,-0.001,0.000,0.048,0.029,0.001,0.001,-0.001,-0.001,0.048,0.001,0.000,0
20260703_205201,case01_boxes_2layer,6,62.2,1.000,17.430,533.704,-1.411,749.281,-10.232,0.091,0.771,36.941,1.427,2.103,-0.948,-1.503,-0.837,2.096,-0.228,0.107,-85.324,1.121,-1.723,0.013,-0.009,-0.002,-0.017,0.127,-0.016,0.126,-0.203,-0.007,0.304,0.000,1,1,1,1,0.003,0.004,-0.749,0.031,0.000,0.000,0.059,-0.006,0.749,0.059,0.000,0
20260703_205201,case01_boxes_2layer,6,62.2,1.000,17.535,532.651,-1.050,749.366,-9.905,-0.159,0.752,35.763,3.275,-2.492,-0.196,-3.224,0.108,-2.563,-1.010,1.284,-85.485,-7.817,11.766,-1.611,-0.002,0.000,0.039,0.070,0.017,0.555,-0.314,-0.010,0.376,0.000,0,1,1,1,0.000,0.007,0.207,0.400,0.000,0.003,0.004,-0.005,0.400,0.005,0.023,0
20260703_205201,case01_boxes_2layer,6,62.2,1.000,17.642,531.588,-1.107,749.446,-9.811,-0.967,0.747,35.592,0.936,-8.083,-0.046,-0.730,0.157,-8.102,-0.917,1.459,-85.493,0.927,1.758,-0.076,-0.017,-0.001,0.009,-0.144,-0.013,-0.302,-0.191,-0.006,0.375,0.000,1,1,0,0,0.021,0.000,0.000,0.000,-0.003,-0.003,0.000,0.000,0.021,0.003,0.000,0
20260703_205201,case01_boxes_2layer,6,62.2,1.000,17.763,530.411,-1.254,749.536,-9.762,-1.456,0.754,35.635,0.491,-4.892,0.072,-0.371,0.178,-4.900,-0.792,1.319,-85.495,1.256,-1.403,-0.025,-0.023,0.000,-0.052,-0.062,0.008,-0.606,-0.127,-0.004,0.373,0.000,1,1,0,0,0.001,0.001,0.000,0.000,-0.003,-0.003,0.000,0.000,0.001,0.003,0.000,0
20260703_205201,case01_boxes_2layer,6,62.2,1.000,17.879,529.279,-1.431,749.624,-9.911,-1.388,0.783,36.138,-1.492,0.680,0.290,1.501,0.163,0.702,-0.665,0.767,-85.496,1.261,-5.524,-0.009,-0.027,0.000,-0.099,-0.037,0.006,-0.467,-0.084,-0.003,0.364,0.000,1,1,1,1,0.005,0.014,0.650,0.409,-0.001,-0.001,-0.003,-0.003,0.650,0.003,0.000,0
20260703_205201,case01_boxes_2layer,6,62.2,1.000,17.987,528.205,-1.526,749.709,-9.959,-0.575,0.803,36.029,-0.480,8.134,0.201,0.484,0.085,8.136,-0.546,0.077,-85.467,1.199,-6.900,0.291,-0.023,0.005,-0.103,0.032,0.049,-0.041,-0.139,-0.005,0.352,0.000,1,1,1,1,-0.003,-0.169,0.323,-0.271,0.002,0.002,-0.002,-0.002,0.323,0.002,0.000,0
20260703_205201,case01_boxes_2layer,6,62.2,1.000,18.090,527.171,-1.523,749.793,-10.032,0.392,0.822,36.264,-0.730,9.662,0.189,0.803,0.060,9.658,-0.421,-0.359,-85.462,1.243,-4.362,0.051,-0.028,-0.001,-0.044,-0.050,-0.058,0.585,-0.178,-0.006,0.355,0.000,1,1,1,1,-0.002,0.005,0.001,0.386,0.002,0.002,-0.002,-0.002,0.386,0.002,0.000,0
20260703_205201,case01_boxes_2layer,6,62.2,1.000,18.191,526.165,-1.483,749.875,-10.057,0.380,0.828,36.353,-0.247,-0.114,0.054,0.249,0.035,-0.116,-0.281,-0.557,-85.462,1.406,-1.974,-0.001,-0.025,0.000,-0.017,0.030,0.004,0.278,-0.207,-0.007,0.352,0.000,1,1,1,1,-0.004,0.004,0.055,0.356,0.003,0.003,-0.001,-0.001,0.356,0.003,0.000,0
20260703_205201,case01_boxes_2layer,6,62.2,1.000,18.303,525.036,-1.446,749.968,-10.040,0.261,0.827,36.280,0.165,-1.194,-0.008,-0.177,0.008,-1.192,-0.127,-0.591,-85.461,1.538,-0.345,0.005,-0.023,0.001,0.010,0.025,0.010,0.268,-0.280,-0.009,0.342,0.000,1,1,1,1,-0.009,-0.005,0.035,-0.244,0.003,0.003,-0.001,-0.001,0.244,0.003,0.000,0
20260703_205201,case01_boxes_2layer,6,62.2,1.000,18.411,523.952,-1.425,750.056,-10.105,0.132,0.829,36.503,-0.645,-1.288,0.023,0.634,-0.028,-1.293,0.017,-0.480,-85.461,1.436,1.109,-0.001,-0.020,0.000,0.029,0.025,-0.013,0.184,-0.364,-0.012,0.344,0.000,1,1,1,1,-0.002,0.003,0.052,0.275,0.005,0.005,-0.001,-0.001,0.275,0.005,0.000,0
20260703_205201,case01_boxes_2layer,6,62.2,1.000,18.511,522.940,-1.416,750.139,-10.128,0.052,0.825,36.580,-0.227,-0.796,-0.043,0.218,-0.063,-0.797,0.142,-0.307,-85.465,1.253,1.739,-0.034,-0.018,-0.001,0.035,0.025,-0.008,0.063,-0.426,-0.014,0.340,0.000,1,1,1,1,0.001,0.003,0.052,0.234,0.005,0.005,-0.001,-0.001,0.234,0.005,0.000,0
20260703_205201,case01_boxes_2layer,6,62.2,1.000,18.631,521.723,-1.412,750.237,-10.155,0.011,0.816,36.674,-0.271,-0.410,-0.091,0.262,-0.114,-0.410,0.274,-0.082,-85.476,1.316,2.246,-0.108,-0.015,-0.002,0.032,0.033,-0.012,-0.030,-0.498,-0.017,0.335,0.000,1,1,1,1,0.001,0.003,0.052,0.173,0.005,0.005,-0.001,-0.001,0.173,0.005,0.000,0
20260703_205201,case01_boxes_2layer,6,62.2,1.000,18.735,520.669,-1.411,750.320,-10.175,0.007,0.806,36.746,-0.208,-0.048,-0.096,0.200,-0.112,-0.047,0.365,0.078,-85.492,0.918,1.604,-0.162,-0.012,-0.003,0.024,0.030,-0.009,-0.081,-0.577,-0.019,0.330,0.000,1,1,1,1,0.000,0.002,0.051,0.099,0.005,0.005,0.000,0.000,0.099,0.005,0.000,0
20260703_205201,case01_boxes_2layer,6,62.2,1.000,18.838,519.613,-1.410,750.403,-10.197,0.010,0.796,36.822,-0.218,0.035,-0.098,0.210,-0.115,0.036,0.434,0.184,-85.513,0.689,1.051,-0.216,-0.009,-0.004,0.014,0.030,-0.007,-0.101,-0.587,-0.020,0.326,0.000,1,1,1,1,0.000,0.000,0.050,0.047,0.004,0.004,0.000,0.000,0.050,0.004,0.000,0
20260703_205201,case01_boxes_2layer,6,62.2,1.000,18.938,518.590,-1.409,750.482,-10.221,0.010,0.787,36.904,-0.236,0.000,-0.098,0.227,-0.116,0.002,0.479,0.228,-85.538,0.443,0.449,-0.249,-0.006,-0.005,0.004,0.030,-0.006,-0.096,-0.583,-0.019,0.323,0.000,1,1,1,1,0.000,0.000,0.049,0.036,0.004,0.004,0.000,0.000,0.049,0.004,0.000,0
20260703_205201,case01_boxes_2layer,6,62.2,1.000,19.063,517.316,-1.409,750.579,-10.250,-0.001,0.774,37.007,-0.296,-0.109,-0.122,0.286,-0.146,-0.107,0.504,0.219,-85.573,0.259,-0.096,-0.345,-0.002,-0.005,-0.005,0.038,-0.004,-0.094,-0.605,-0.020,0.319,0.000,1,1,1,1,0.000,0.000,0.047,0.033,0.004,0.004,0.000,0.000,0.047,0.004,0.000,0
20260703_205201,case01_boxes_2layer,6,62.2,1.000,19.170,516.215,-1.409,750.662,-10.274,-0.016,0.764,37.088,-0.236,-0.149,-0.100,0.228,-0.120,-0.147,0.503,0.172,-85.604,-0.015,-0.468,-0.315,0.001,-0.005,-0.010,0.032,-0.002,-0.043,-0.599,-0.020,0.315,0.000,1,1,1,1,0.000,0.000,0.045,0.032,0.003,0.003,0.000,0.000,0.045,0.003,0.000,0
20260703_205201,case01_boxes_2layer,6,62.2,1.000,19.275,515.142,-1.412,750.741,-10.294,-0.028,0.756,37.159,-0.201,-0.122,-0.087,0.195,-0.103,-0.121,0.482,0.111,-85.636,-0.205,-0.609,-0.314,0.004,-0.005,-0.011,0.028,-0.001,-0.012,-0.644,-0.022,0.312,0.000,1,1,1,1,0.000,0.000,0.044,0.031,0.004,0.004,0.000,0.000,0.044,0.004,0.000,0
20260703_205201,case01_boxes_2layer,6,62.2,1.000,19.379,514.069,-1.415,750.820,-10.313,-0.035,0.747,37.225,-0.191,-0.070,-0.082,0.184,-0.097,-0.069,0.445,0.050,-85.667,-0.371,-0.608,-0.316,0.007,-0.005,-0.010,0.026,0.000,0.007,-0.615,-0.021,0.310,0.000,1,1,1,1,-0.001,0.000,0.043,0.030,0.004,0.004,0.000,0.000,0.043,0.004,0.000,0
20260703_205201,case01_boxes_2layer,6,62.2,1.000,19.479,513.036,-1.419,750.894,-10.331,-0.035,0.739,37.288,-0.182,-0.003,-0.080,0.175,-0.093,-0.002,0.396,0.002,-85.697,-0.493,-0.488,-0.302,0.009,-0.005,-0.008,0.023,0.000,0.020,-0.581,-0.019,0.307,0.000,1,1,1,1,-0.001,0.000,0.042,0.029,0.003,0.003,0.000,0.000,0.042,0.003,0.000,0
20260703_205201,case01_boxes_2layer,6,62.2,1.000,19.595,511.838,-1.422,750.980,-10.352,-0.028,0.731,37.360,-0.207,0.071,-0.088,0.200,-0.102,0.071,0.325,-0.036,-85.732,-0.708,-0.379,-0.345,0.011,-0.005,-0.005,0.023,0.001,0.032,-0.569,-0.019,0.304,0.000,1,1,1,1,-0.001,0.000,0.042,0.029,0.003,0.003,0.000,0.000,0.042,0.003,0.000,0
20260703_205201,case01_boxes_2layer,6,62.2,1.000,19.703,510.721,-1.425,751.058,-10.370,-0.018,0.723,37.424,-0.182,0.102,-0.074,0.176,-0.086,0.103,0.249,-0.052,-85.764,-0.757,-0.160,-0.316,0.013,-0.005,-0.002,0.015,0.001,0.029,-0.615,-0.018,0.302,0.000,1,1,1,1,-0.001,0.000,0.042,0.028,0.004,0.004,0.000,0.000,0.042,0.004,0.000,0
20260703_205201,case01_boxes_2layer,6,62.2,1.000,19.811,509.596,-1.426,751.137,-10.388,-0.008,0.717,37.485,-0.174,0.102,-0.062,0.170,-0.074,0.102,0.167,-0.052,-85.795,-0.821,0.002,-0.310,0.014,-0.005,0.000,0.008,0.001,0.023,-0.584,-0.020,0.299,0.000,1,1,1,1,-0.001,0.000,0.042,0.028,0.003,0.003,0.000,0.000,0.042,0.003,0.000,0
20260703_205201,case01_boxes_2layer,6,62.2,1.000,19.926,508.394,-1.427,751.220,-10.404,0.000,0.712,37.544,-0.168,0.075,-0.052,0.164,-0.064,0.075,0.077,-0.039,-85.827,-0.902,0.132,-0.322,0.014,-0.005,0.002,0.002,0.002,0.014,-0.549,-0.018,0.297,0.000,1,1,1,1,-0.001,0.000,0.042,0.028,0.003,0.003,0.000,0.000,0.042,0.003,0.000,0
20260703_205201,case01_boxes_2layer,6,62.2,1.000,20.144,506.131,-1.426,751.374,-10.436,0.004,0.705,37.657,-0.319,0.040,-0.068,0.313,-0.091,0.040,-0.085,-0.001,-85.884,-1.623,0.382,-0.571,0.012,-0.004,0.002,-0.014,0.004,0.005,-0.490,-0.016,0.292,0.000,1,1,1,1,0.000,0.000,0.043,0.028,0.002,0.002,0.000,0.000,0.043,0.002,0.000,0
20260703_205201,case01_boxes_2layer,6,62.2,1.000,20.255,504.972,-1.426,751.452,-10.451,0.002,0.703,37.710,-0.151,-0.021,-0.021,0.149,-0.031,-0.021,-0.158,0.016,-85.911,-0.732,0.169,-0.273,0.011,-0.004,0.001,-0.014,0.002,-0.006,-0.464,-0.015,0.290,0.000,1,1,1,1,0.000,0.000,0.044,0.027,0.002,0.002,0.000,0.000,0.044,0.002,0.000,0
20260703_205201,case01_boxes_2layer,6,62.2,1.000,20.358,503.887,-1.426,751.525,-10.465,-0.001,0.702,37.757,-0.132,-0.028,-0.013,0.131,-0.022,-0.028,-0.218,0.027,-85.935,-0.597,0.109,-0.244,0.009,-0.004,0.001,-0.016,0.002,-0.008,-0.482,-0.014,0.288,0.000,1,1,1,1,0.000,0.000,0.044,0.027,0.002,0.002,0.000,0.000,0.044,0.002,0.000,0
20260703_205201,case01_boxes_2layer,6,62.2,1.000,20.459,502.836,-1.426,751.596,-10.477,-0.004,0.701,37.803,-0.127,-0.027,-0.006,0.126,-0.015,-0.027,-0.266,0.032,-85.958,-0.484,0.052,-0.226,0.008,-0.004,0.000,-0.017,0.002,-0.008,-0.456,-0.015,0.286,0.000,1,1,1,1,0.000,0.000,0.044,0.027,0.002,0.002,-0.001,-0.001,0.044,0.002,0.000,0
20260703_205201,case01_boxes_2layer,6,62.2,1.000,20.563,501.748,-1.426,751.669,-10.491,-0.006,0.701,37.851,-0.134,-0.020,-0.004,0.133,-0.014,-0.020,-0.306,0.033,-85.981,-0.397,0.004,-0.226,0.006,-0.004,-0.001,-0.020,0.001,-0.007,-0.443,-0.015,0.284,0.000,1,1,1,1,0.000,0.000,0.043,0.027,0.002,0.002,-0.001,-0.001,0.043,0.002,0.000,0
20260703_205201,case01_boxes_2layer,6,62.2,1.000,20.666,500.659,-1.427,751.742,-10.502,-0.007,0.701,37.893,-0.117,-0.007,-0.002,0.116,-0.010,-0.007,-0.335,0.029,-86.003,-0.289,-0.035,-0.219,0.004,-0.004,-0.001,-0.018,0.001,-0.004,-0.430,-0.014,0.283,0.000,1,1,1,1,0.000,0.000,0.043,0.026,0.002,0.002,-0.001,-0.001,0.043,0.002,0.000,0
20260703_205201,case01_boxes_2layer,6,62.2,1.000,20.771,499.564,-1.428,751.815,-10.515,-0.006,0.700,37.937,-0.123,0.005,-0.003,0.123,-0.011,0.005,-0.353,0.023,-86.024,-0.181,-0.059,-0.216,0.002,-0.004,-0.001,-0.019,0.000,-0.001,-0.427,-0.014,0.281,0.000,1,1,1,1,0.000,0.000,0.043,0.026,0.002,0.002,-0.001,-0.001,0.043,0.002,0.000,0
20260703_205201,case01_boxes_2layer,6,62.2,1.000,20.871,498.507,-1.428,751.886,-10.525,-0.005,0.700,37.975,-0.107,0.014,-0.005,0.107,-0.012,0.014,-0.361,0.017,-86.045,-0.076,-0.064,-0.206,0.000,-0.004,-0.001,-0.016,0.000,0.001,-0.462,-0.015,0.279,0.000,1,1,1,1,0.000,0.000,0.042,0.026,0.002,0.002,-0.001,-0.001,0.042,0.002,0.000,0
20260703_205201,case01_boxes_2layer,6,62.2,1.000,20.975,497.416,-1.429,751.958,-10.536,-0.003,0.699,38.012,-0.103,0.020,-0.007,0.103,-0.015,0.020,-0.359,0.011,-86.066,0.017,-0.061,-0.215,-0.001,-0.004,-0.001,-0.015,0.000,0.003,-0.460,-0.015,0.278,0.000,1,1,1,1,0.000,0.000,0.042,0.026,0.002,0.002,-0.001,-0.001,0.042,0.002,0.000,0
20260703_205201,case01_boxes_2layer,6,62.2,1.000,21.079,496.311,-1.429,752.031,-10.546,0.000,0.698,38.048,-0.100,0.022,-0.012,0.099,-0.018,0.022,-0.348,0.006,-86.089,0.107,-0.048,-0.222,-0.002,-0.004,0.000,-0.013,-0.001,0.004,-0.455,-0.015,0.276,0.000,1,1,1,1,0.000,0.000,0.041,0.026,0.002,0.002,-0.001,-0.001,0.041,0.002,0.000,0
20260703_205201,case01_boxes_2layer,6,62.2,1.000,21.183,495.219,-1.429,752.103,-10.556,0.002,0.697,38.085,-0.105,0.023,-0.014,0.104,-0.021,0.023,-0.330,0.003,-86.111,0.182,-0.028,-0.224,-0.004,-0.004,0.000,-0.012,-0.001,0.004,-0.458,-0.015,0.275,0.000,1,1,1,1,0.000,0.000,0.041,0.026,0.002,0.002,-0.001,-0.001,0.041,0.002,0.000,0
20260703_205201,case01_boxes_2layer,6,62.2,1.000,21.291,494.081,-1.428,752.178,-10.566,0.004,0.695,38.121,-0.102,0.019,-0.020,0.100,-0.027,0.019,-0.304,0.002,-86.135,0.257,-0.010,-0.237,-0.005,-0.004,0.000,-0.010,-0.001,0.004,-0.504,-0.016,0.274,0.000,1,1,1,1,0.000,0.000,0.041,0.026,0.003,0.003,-0.001,-0.001,0.041,0.003,0.000,0
20260703_205201,case01_boxes_2layer,6,62.2,1.000,21.395,492.982,-1.428,752.250,-10.575,0.005,0.692,38.153,-0.089,0.013,-0.024,0.088,-0.030,0.012,-0.274,0.003,-86.158,0.300,0.007,-0.237,-0.005,-0.004,0.001,-0.007,-0.001,0.003,-0.510,-0.017,0.272,0.000,1,1,1,1,0.000,0.000,0.041,0.026,0.003,0.003,-0.001,-0.001,0.041,0.003,0.000,0
20260703_205201,case01_boxes_2layer,6,62.2,1.000,21.499,491.880,-1.427,752.322,-10.584,0.006,0.689,38.183,-0.087,0.007,-0.031,0.085,-0.037,0.007,-0.241,0.005,-86.183,0.338,0.017,-0.247,-0.006,-0.004,0.001,-0.005,-0.002,0.002,-0.512,-0.017,0.271,0.000,1,1,1,1,0.000,0.000,0.040,0.026,0.003,0.003,0.000,0.000,0.040,0.003,0.000,0
20260703_205201,case01_boxes_2layer,6,62.2,1.000,21.607,490.735,-1.427,752.396,-10.593,0.006,0.685,38.216,-0.092,0.003,-0.039,0.089,-0.045,0.003,-0.203,0.007,-86.210,0.374,0.023,-0.267,-0.006,-0.004,0.001,-0.003,-0.002,0.001,-0.525,-0.018,0.270,0.000,1,1,1,1,0.000,0.000,0.040,0.025,0.003,0.003,0.000,0.000,0.040,0.003,0.000,0
20260703_205201,case01_boxes_2layer,6,62.2,1.000,21.711,489.636,-1.426,752.467,-10.602,0.006,0.680,38.247,-0.089,-0.002,-0.047,0.086,-0.053,-0.002,-0.166,0.009,-86.236,0.368,0.022,-0.267,-0.006,-0.005,0.001,0.000,-0.002,0.000,-0.537,-0.018,0.268,0.000,1,1,1,1,0.000,0.000,0.040,0.026,0.003,0.003,0.000,0.000,0.040,0.003,0.000,0
20260703_205201,case01_boxes_2layer,6,62.2,1.000,21.811,488.575,-1.426,752.535,-10.610,0.005,0.676,38.274,-0.079,-0.005,-0.049,0.075,-0.054,-0.005,-0.131,0.011,-86.263,0.352,0.017,-0.269,-0.006,-0.005,0.001,0.002,-0.002,-0.001,-0.587,-0.020,0.267,0.000,1,1,1,1,0.000,0.000,0.039,0.025,0.003,0.003,0.000,0.000,0.039,0.003,0.000,0
20260703_205201,case01_boxes_2layer,6,62.2,1.000,21.915,487.470,-1.425,752.605,-10.618,0.005,0.670,38.300,-0.076,-0.007,-0.053,0.073,-0.057,-0.007,-0.096,0.012,-86.293,0.352,0.012,-0.292,-0.006,-0.005,0.001,0.003,-0.002,-0.001,-0.585,-0.020,0.266,0.000,1,1,1,1,0.000,0.000,0.039,0.025,0.003,0.003,0.000,0.000,0.039,0.003,0.000,0
20260703_205201,case01_boxes_2layer,6,62.2,1.000,22.019,486.367,-1.425,752.674,-10.625,0.004,0.664,38.325,-0.074,-0.008,-0.058,0.070,-0.063,-0.008,-0.064,0.013,-86.323,0.325,0.005,-0.302,-0.005,-0.005,0.000,0.005,-0.002,-0.001,-0.585,-0.020,0.265,0.000,1,1,1,1,0.000,0.000,0.039,0.025,0.003,0.003,0.000,0.000,0.039,0.003,0.000,0
20260703_205201,case01_boxes_2layer,6,62.2,1.000,22.123,485.261,-1.424,752.742,-10.633,0.003,0.657,38.352,-0.078,-0.008,-0.070,0.074,-0.075,-0.008,-0.034,0.013,-86.354,0.292,-0.001,-0.314,-0.005,-0.005,0.000,0.007,-0.002,-0.001,-0.590,-0.020,0.264,0.000,1,1,1,1,0.000,0.000,0.039,0.025,0.003,0.003,0.000,0.000,0.039,0.003,0.000,0
20260703_205201,case01_boxes_2layer,6,62.2,1.000,22.227,484.155,-1.424,752.810,-10.640,0.002,0.651,38.375,-0.069,-0.007,-0.066,0.065,-0.070,-0.007,-0.009,0.012,-86.387,0.252,-0.005,-0.324,-0.004,-0.006,0.000,0.007,-0.001,-0.001,-0.643,-0.020,0.263,0.000,1,1,1,1,0.000,0.000,0.038,0.025,0.004,0.004,0.000,0.000,0.038,0.004,0.000,0
20260703_205201,case01_boxes_2layer,6,62.2,1.000,22.335,483.006,-1.424,752.880,-10.647,0.002,0.643,38.400,-0.073,-0.007,-0.075,0.068,-0.079,-0.007,0.012,0.011,-86.421,0.213,-0.008,-0.345,-0.003,-0.006,0.000,0.008,-0.001,-0.001,-0.645,-0.022,0.262,0.000,1,1,1,1,0.000,0.000,0.038,0.025,0.004,0.004,0.000,0.000,0.038,0.004,0.000,0
20260703_205201,case01_boxes_2layer,6,62.2,1.000,22.438,481.901,-1.424,752.946,-10.654,0.001,0.636,38.421,-0.064,-0.006,-0.071,0.059,-0.075,-0.006,0.028,0.011,-86.455,0.156,-0.008,-0.340,-0.002,-0.006,0.000,0.008,-0.001,0.000,-0.635,-0.021,0.261,0.000,1,1,1,1,0.000,0.000,0.038,0.025,0.003,0.003,0.000,0.000,0.038,0.003,0.000,0
20260703_205201,case01_boxes_2layer,6,62.2,1.000,22.607,480.107,-1.423,753.052,-10.664,0.000,0.624,38.456,-0.104,-0.008,-0.123,0.096,-0.129,-0.008,0.043,0.009,-86.511,0.150,-0.011,-0.564,-0.001,-0.006,0.000,0.013,-0.001,0.000,-0.636,-0.021,0.260,0.000,1,1,1,1,0.000,0.000,0.038,0.025,0.003,0.003,0.000,0.000,0.038,0.003,0.000,0
20260703_205201,case01_boxes_2layer,6,62.2,1.000,22.940,476.549,-1.424,753.256,-10.682,-0.001,0.600,38.517,-0.184,-0.013,-0.243,0.170,-0.253,-0.013,0.037,0.009,-86.626,-0.053,-0.008,-1.145,0.001,-0.006,0.000,0.022,-0.002,0.000,-0.623,-0.021,0.257,0.000,1,1,1,1,0.000,0.000,0.038,0.025,0.003,0.003,0.000,0.000,0.038,0.003,0.000,0
20260703_205201,case01_boxes_2layer,6,62.2,1.000,23.047,475.410,-1.424,753.320,-10.688,-0.001,0.592,38.536,-0.057,-0.004,-0.078,0.052,-0.082,-0.003,0.028,0.009,-86.663,-0.097,0.001,-0.372,0.002,-0.006,0.000,0.005,0.000,0.000,-0.613,-0.021,0.257,0.000,1,1,1,1,0.000,0.000,0.038,0.025,0.003,0.003,0.000,0.000,0.038,0.003,0.000,0
20260703_205201,case01_boxes_2layer,6,62.2,1.000,23.154,474.257,-1.424,753.383,-10.693,-0.002,0.584,38.554,-0.055,-0.003,-0.079,0.050,-0.082,-0.003,0.015,0.009,-86.701,-0.127,0.001,-0.376,0.002,-0.006,0.000,0.004,0.000,0.000,-0.673,-0.020,0.256,0.000,1,1,1,1,0.000,0.000,0.037,0.024,0.004,0.004,0.000,0.000,0.037,0.004,0.000,0
20260703_205201,case01_boxes_2layer,6,62.2,1.000,23.263,473.099,-1.424,753.446,-10.699,-0.002,0.577,38.571,-0.052,-0.002,-0.074,0.048,-0.077,-0.002,0.000,0.009,-86.738,-0.150,0.001,-0.378,0.003,-0.006,0.000,0.003,0.000,0.000,-0.663,-0.020,0.255,0.000,1,1,1,1,0.000,0.000,0.037,0.024,0.003,0.003,0.000,0.000,0.037,0.003,0.000,0
20260703_205201,case01_boxes_2layer,6,62.2,1.000,23.366,471.990,-1.424,753.506,-10.703,-0.002,0.570,38.586,-0.046,-0.002,-0.065,0.042,-0.068,-0.002,-0.016,0.009,-86.774,-0.157,0.000,-0.359,0.003,-0.006,0.000,0.002,0.000,0.000,-0.642,-0.022,0.254,0.000,1,1,1,1,0.000,0.000,0.037,0.024,0.003,0.003,0.000,0.000,0.037,0.003,0.000,0
20260703_205201,case01_boxes_2layer,6,62.2,1.000,23.475,470.832,-1.424,753.567,-10.708,-0.002,0.563,38.602,-0.048,-0.001,-0.071,0.044,-0.074,-0.001,-0.033,0.009,-86.812,-0.172,0.000,-0.375,0.003,-0.006,0.000,0.001,0.000,0.000,-0.633,-0.021,0.254,0.000,1,1,1,1,0.000,0.000,0.037,0.024,0.003,0.003,0.000,0.000,0.037,0.003,0.000,0
20260703_205201,case01_boxes_2layer,6,62.2,1.000,23.575,469.760,-1.425,753.623,-10.712,-0.002,0.557,38.616,-0.042,0.000,-0.064,0.039,-0.066,0.000,-0.049,0.009,-86.846,-0.159,-0.001,-0.345,0.003,-0.006,0.000,0.000,0.000,0.000,-0.616,-0.021,0.253,0.000,1,1,1,1,0.000,0.000,0.037,0.024,0.003,0.003,0.000,0.000,0.037,0.003,0.000,0
20260703_205201,case01_boxes_2layer,6,62.2,1.000,23.678,468.647,-1.425,753.681,-10.716,-0.002,0.550,38.630,-0.041,0.001,-0.061,0.037,-0.063,0.001,-0.065,0.009,-86.882,-0.161,-0.001,-0.356,0.003,-0.006,0.000,-0.001,0.000,0.000,-0.600,-0.020,0.253,0.000,1,1,1,1,0.000,0.000,0.037,0.024,0.002,0.002,0.000,0.000,0.037,0.002,0.000,0
20260703_205201,case01_boxes_2layer,6,62.2,1.000,23.779,467.574,-1.425,753.735,-10.720,-0.002,0.544,38.643,-0.039,0.001,-0.061,0.036,-0.063,0.001,-0.079,0.009,-86.916,-0.146,-0.002,-0.342,0.002,-0.006,0.000,-0.002,0.000,0.000,-0.644,-0.022,0.252,0.000,1,1,1,1,0.000,0.000,0.037,0.024,0.003,0.003,0.000,0.000,0.037,0.003,0.000,0
20260703_205201,case01_boxes_2layer,6,62.2,1.000,23.883,466.454,-1.425,753.792,-10.724,-0.002,0.538,38.657,-0.042,0.002,-0.066,0.038,-0.068,0.002,-0.093,0.008,-86.952,-0.139,-0.002,-0.357,0.002,-0.006,0.000,-0.003,0.000,0.000,-0.640,-0.022,0.252,0.000,1,1,1,1,0.000,0.000,0.037,0.024,0.003,0.003,0.000,0.000,0.037,0.003,0.000,0
20260703_205201,case01_boxes_2layer,6,62.2,1.000,23.991,465.293,-1.425,753.850,-10.728,-0.001,0.531,38.670,-0.040,0.003,-0.065,0.036,-0.067,0.003,-0.106,0.008,-86.989,-0.125,-0.002,-0.370,0.002,-0.006,0.000,-0.003,0.000,0.000,-0.637,-0.021,0.251,0.000,1,1,1,1,0.000,0.000,0.037,0.024,0.003,0.003,0.000,0.000,0.037,0.003,0.000,0
20260703_205201,case01_boxes_2layer,6,62.2,1.000,24.099,464.141,-1.426,753.907,-10.732,-0.001,0.525,38.681,-0.035,0.003,-0.058,0.032,-0.060,0.003,-0.116,0.008,-87.026,-0.103,-0.002,-0.367,0.002,-0.006,0.000,-0.003,0.000,0.000,-0.626,-0.021,0.250,0.000,1,1,1,1,0.000,0.000,0.037,0.024,0.003,0.003,0.000,0.000,0.037,0.003,0.000,0
20260703_205201,case01_boxes_2layer,6,62.2,1.000,24.203,463.024,-1.426,753.961,-10.736,-0.001,0.519,38.693,-0.037,0.003,-0.067,0.034,-0.069,0.003,-0.124,0.008,-87.062,-0.078,-0.001,-0.358,0.001,-0.006,0.000,-0.004,-0.001,0.000,-0.625,-0.021,0.250,0.000,1,1,1,1,0.000,0.000,0.037,0.024,0.003,0.003,0.000,0.000,0.037,0.003,0.000,0
20260703_205201,case01_boxes_2layer,6,62.2,1.000,24.307,461.902,-1.426,754.015,-10.739,-0.001,0.513,38.704,-0.032,0.003,-0.060,0.029,-0.061,0.003,-0.129,0.008,-87.098,-0.056,-0.001,-0.363,0.001,-0.006,0.000,-0.004,0.000,0.000,-0.616,-0.021,0.250,0.000,1,1,1,1,0.000,0.000,0.037,0.024,0.003,0.003,0.000,0.000,0.037,0.003,0.000,0
20260703_205201,case01_boxes_2layer,6,62.2,1.000,24.410,460.793,-1.426,754.067,-10.742,0.000,0.506,38.715,-0.034,0.003,-0.067,0.031,-0.068,0.003,-0.133,0.008,-87.134,-0.032,-0.001,-0.361,0.000,-0.006,0.000,-0.004,-0.001,0.000,-0.620,-0.021,0.249,0.000,1,1,1,1,0.000,0.000,0.037,0.024,0.003,0.003,0.000,0.000,0.037,0.003,0.000,0
20260703_205201,case01_boxes_2layer,6,62.2,1.000,24.511,459.718,-1.426,754.118,-10.745,0.000,0.500,38.725,-0.030,0.003,-0.062,0.027,-0.063,0.003,-0.134,0.008,-87.169,-0.011,0.000,-0.353,0.000,-0.006,0.000,-0.003,-0.001,0.000,-0.672,-0.023,0.249,0.000,1,1,1,1,0.000,0.000,0.037,0.024,0.003,0.003,0.000,0.000,0.037,0.003,0.000,0
20260703_205201,case01_boxes_2layer,6,62.2,1.000,24.615,458.599,-1.426,754.169,-10.748,0.000,0.494,38.734,-0.029,0.002,-0.062,0.026,-0.063,0.002,-0.133,0.008,-87.207,0.009,0.000,-0.371,0.000,-0.006,0.000,-0.003,-0.001,0.000,-0.664,-0.022,0.248,0.000,1,1,1,1,0.000,0.000,0.037,0.024,0.003,0.003,0.000,0.000,0.037,0.003,0.000,0
20260703_205201,case01_boxes_2layer,6,62.2,1.000,24.715,457.516,-1.426,754.219,-10.751,0.000,0.487,38.743,-0.028,0.002,-0.065,0.025,-0.066,0.002,-0.130,0.008,-87.243,0.026,0.000,-0.364,-0.001,-0.006,0.000,-0.003,-0.001,0.000,-0.655,-0.022,0.248,0.000,1,1,1,1,0.000,0.000,0.037,0.024,0.003,0.003,0.000,0.000,0.037,0.003,0.000,0
20260703_205201,case01_boxes_2layer,6,62.2,1.000,24.823,456.357,-1.426,754.271,-10.754,0.001,0.480,38.753,-0.030,0.002,-0.072,0.026,-0.073,0.002,-0.126,0.008,-87.282,0.045,0.000,-0.395,-0.001,-0.006,0.000,-0.003,-0.001,0.000,-0.661,-0.022,0.247,0.000,1,1,1,1,0.000,0.000,0.037,0.024,0.003,0.003,0.000,0.000,0.037,0.003,0.000,0
20260703_205201,case01_boxes_2layer,6,62.2,1.000,24.927,455.237,-1.426,754.321,-10.757,0.001,0.473,38.761,-0.026,0.001,-0.069,0.023,-0.070,0.001,-0.120,0.008,-87.321,0.057,0.000,-0.388,-0.001,-0.007,0.000,-0.002,-0.001,0.000,-0.659,-0.022,0.247,0.000,1,1,1,1,0.000,0.000,0.037,0.024,0.003,0.003,0.000,0.000,0.037,0.003,0.000,0
20260703_205201,case01_boxes_2layer,6,62.2,1.000,25.031,454.119,-1.425,754.369,-10.759,0.001,0.465,38.770,-0.028,0.001,-0.079,0.024,-0.080,0.001,-0.113,0.008,-87.360,0.067,0.000,-0.392,-0.001,-0.007,0.000,-0.002,-0.001,0.000,-0.729,-0.022,0.247,0.000,1,1,1,1,0.000,0.000,0.037,0.023,0.004,0.004,0.000,0.000,0.037,0.004,0.000,0
20260703_205201,case01_boxes_2layer,6,62.2,1.000,25.139,452.961,-1.425,754.419,-10.762,0.001,0.458,38.778,-0.024,0.001,-0.071,0.021,-0.072,0.001,-0.106,0.008,-87.402,0.078,0.000,-0.414,-0.001,-0.007,0.000,-0.001,-0.001,0.000,-0.721,-0.024,0.246,0.000,1,1,1,1,0.000,0.000,0.037,0.023,0.004,0.004,0.000,0.000,0.037,0.004,0.000,0
20260703_205201,case01_boxes_2layer,6,62.2,1.000,25.239,451.881,-1.425,754.464,-10.764,0.001,0.451,38.785,-0.024,0.000,-0.073,0.020,-0.074,0.000,-0.098,0.008,-87.441,0.077,0.000,-0.392,-0.001,-0.007,0.000,0.000,-0.001,0.000,-0.716,-0.024,0.246,0.000,1,1,1,1,0.000,0.000,0.036,0.023,0.003,0.003,0.000,0.000,0.036,0.003,0.000,0
20260703_205201,case01_boxes_2layer,6,62.2,1.000,25.347,450.723,-1.425,754.512,-10.767,0.001,0.442,38.793,-0.025,0.000,-0.084,0.021,-0.085,0.000,-0.089,0.008,-87.484,0.085,0.000,-0.427,-0.001,-0.007,0.000,0.000,-0.001,0.000,-0.722,-0.024,0.246,0.000,1,1,1,1,0.000,0.000,0.036,0.023,0.003,0.003,0.000,0.000,0.036,0.003,0.000,0
20260703_205201,case01_boxes_2layer,6,62.2,1.000,25.455,449.562,-1.425,754.560,-10.769,0.001,0.434,38.800,-0.024,0.000,-0.085,0.020,-0.086,0.000,-0.081,0.008,-87.527,0.083,0.000,-0.435,-0.001,-0.007,0.000,0.000,-0.001,0.000,-0.728,-0.024,0.245,0.000,1,1,1,1,0.000,0.000,0.036,0.023,0.003,0.003,0.000,0.000,0.036,0.003,0.000,0
20260703_205201,case01_boxes_2layer,6,62.2,1.000,25.555,448.483,-1.425,754.603,-10.771,0.001,0.426,38.807,-0.021,-0.001,-0.080,0.018,-0.081,-0.001,-0.074,0.008,-87.568,0.074,0.000,-0.411,-0.001,-0.007,0.000,0.001,-0.001,0.000,-0.722,-0.024,0.245,0.000,1,1,1,1,0.000,0.000,0.036,0.023,0.003,0.003,0.000,0.000,0.036,0.003,0.000,0
20260703_205201,case01_boxes_2layer,6,62.2,1.000,25.663,447.321,-1.425,754.648,-10.773,0.001,0.417,38.814,-0.022,-0.001,-0.090,0.019,-0.091,-0.001,-0.066,0.008,-87.613,0.074,0.000,-0.450,-0.001,-0.007,0.000,0.001,-0.001,0.000,-0.732,-0.025,0.245,0.000,1,1,1,1,0.000,0.000,0.036,0.023,0.003,0.003,0.000,0.000,0.036,0.003,0.000,0
20260703_205201,case01_boxes_2layer,6,62.2,1.000,25.763,446.243,-1.425,754.689,-10.775,0.001,0.408,38.820,-0.020,-0.001,-0.086,0.016,-0.087,-0.001,-0.060,0.008,-87.656,0.062,0.000,-0.423,-0.001,-0.007,0.000,0.001,-0.001,0.000,-0.793,-0.024,0.245,0.000,1,1,1,1,0.000,0.000,0.036,0.023,0.004,0.004,0.000,0.000,0.036,0.004,0.000,0
20260703_205201,case01_boxes_2layer,6,62.2,1.000,25.867,445.124,-1.425,754.731,-10.777,0.001,0.400,38.825,-0.019,-0.001,-0.084,0.016,-0.084,-0.001,-0.055,0.008,-87.700,0.055,0.000,-0.446,-0.001,-0.008,0.000,0.002,-0.001,0.000,-0.783,-0.026,0.244,0.000,1,1,1,1,0.000,0.000,0.036,0.023,0.004,0.004,0.000,0.000,0.036,0.004,0.000,0
20260703_205201,case01_boxes_2layer,6,62.2,1.000,25.974,443.961,-1.425,754.774,-10.779,0.000,0.390,38.831,-0.020,-0.001,-0.094,0.016,-0.095,-0.001,-0.050,0.008,-87.747,0.047,0.000,-0.469,-0.001,-0.008,0.000,0.002,-0.001,0.000,-0.792,-0.027,0.244,0.000,1,1,1,1,0.000,0.000,0.036,0.023,0.004,0.004,0.000,0.000,0.036,0.004,0.000,0
20260703_205201,case01_boxes_2layer,6,62.2,1.000,26.082,442.797,-1.425,754.816,-10.781,0.000,0.381,38.837,-0.019,-0.001,-0.096,0.016,-0.096,-0.001,-0.046,0.008,-87.795,0.036,0.000,-0.475,0.000,-0.008,0.000,0.002,-0.001,0.000,-0.799,-0.027,0.244,0.000,1,1,1,1,0.000,0.000,0.036,0.023,0.004,0.004,0.000,0.000,0.036,0.004,0.000,0
20260703_205201,case01_boxes_2layer,6,62.2,1.000,26.186,441.676,-1.425,754.855,-10.783,0.000,0.372,38.842,-0.017,-0.001,-0.089,0.014,-0.090,-0.001,-0.044,0.008,-87.841,0.024,0.000,-0.464,0.000,-0.008,0.000,0.002,-0.001,0.000,-0.790,-0.027,0.244,0.000,1,1,1,1,0.000,0.000,0.036,0.023,0.004,0.004,0.000,0.000,0.036,0.004,0.000,0
20260703_205201,case01_boxes_2layer,6,62.2,1.000,26.287,440.595,-1.425,754.892,-10.785,0.000,0.363,38.847,-0.016,-0.001,-0.090,0.013,-0.090,-0.001,-0.042,0.008,-87.886,0.014,0.000,-0.453,0.000,-0.008,0.000,0.002,-0.001,0.000,-0.779,-0.026,0.243,0.000,1,1,1,1,0.000,0.000,0.036,0.023,0.003,0.003,0.000,0.000,0.036,0.003,0.000,0
20260703_205201,case01_boxes_2layer,6,62.2,1.000,26.387,439.515,-1.425,754.927,-10.786,0.000,0.354,38.851,-0.016,-0.001,-0.090,0.013,-0.091,-0.001,-0.042,0.008,-87.932,0.005,0.000,-0.456,0.000,-0.008,0.000,0.002,-0.001,0.000,-0.769,-0.026,0.243,0.000,1,1,1,1,0.000,0.000,0.036,0.023,0.003,0.003,0.000,0.000,0.036,0.003,0.000,0
20260703_205201,case01_boxes_2layer,6,62.2,1.000,26.494,438.354,-1.425,754.965,-10.788,0.000,0.344,38.856,-0.017,-0.001,-0.099,0.013,-0.100,-0.001,-0.042,0.008,-87.981,-0.004,0.000,-0.494,0.000,-0.008,0.000,0.002,-0.001,0.000,-0.776,-0.026,0.243,0.000,1,1,1,1,0.000,0.000,0.036,0.023,0.003,0.003,0.000,0.000,0.036,0.003,0.000,0
20260703_205201,case01_boxes_2layer,6,62.2,1.000,26.598,437.231,-1.425,755.000,-10.789,0.000,0.335,38.860,-0.015,-0.001,-0.093,0.011,-0.094,-0.001,-0.043,0.008,-88.030,-0.012,0.000,-0.484,0.000,-0.008,0.000,0.001,-0.001,0.000,-0.839,-0.026,0.243,0.000,1,1,1,1,0.000,0.000,0.036,0.023,0.004,0.004,0.000,0.000,0.036,0.004,0.000,0
20260703_205201,case01_boxes_2layer,6,62.2,1.000,26.703,436.106,-1.425,755.035,-10.791,0.000,0.325,38.865,-0.015,-0.001,-0.102,0.012,-0.102,-0.001,-0.045,0.008,-88.079,-0.018,0.000,-0.488,0.000,-0.008,0.000,0.001,-0.001,0.000,-0.846,-0.026,0.242,0.000,1,1,1,1,0.000,0.000,0.036,0.023,0.004,0.004,0.000,0.000,0.036,0.004,0.000,0
20260703_205201,case01_boxes_2layer,6,62.2,1.000,26.807,434.975,-1.425,755.068,-10.792,0.000,0.315,38.869,-0.013,-0.001,-0.092,0.010,-0.092,-0.001,-0.048,0.008,-88.128,-0.024,0.000,-0.497,0.000,-0.008,0.000,0.001,-0.001,0.000,-0.835,-0.028,0.242,0.000,1,1,1,1,0.000,0.000,0.036,0.023,0.004,0.004,0.001,0.000,0.036,0.004,0.000,0
20260703_205201,case01_boxes_2layer,6,62.2,1.000,26.911,433.855,-1.425,755.100,-10.794,0.000,0.305,38.873,-0.014,0.000,-0.102,0.011,-0.103,0.000,-0.050,0.008,-88.178,-0.027,0.000,-0.495,0.000,-0.008,0.000,0.001,-0.001,0.000,-0.841,-0.028,0.242,0.000,1,1,1,1,0.000,0.000,0.036,0.023,0.004,0.004,0.001,0.001,0.036,0.004,0.000,0
20260703_205201,case01_boxes_2layer,6,62.2,1.000,27.015,432.732,-1.425,755.132,-10.795,0.000,0.296,38.876,-0.012,0.000,-0.093,0.009,-0.093,0.000,-0.053,0.007,-88.228,-0.030,0.000,-0.501,0.001,-0.008,0.000,0.000,-0.001,0.000,-0.831,-0.028,0.242,0.000,1,1,1,1,0.000,0.000,0.036,0.023,0.004,0.004,0.001,0.001,0.036,0.004,0.000,0
20260703_205201,case01_boxes_2layer,6,62.2,1.000,27.123,431.574,-1.425,755.163,-10.796,0.000,0.286,38.880,-0.013,0.000,-0.103,0.010,-0.104,0.000,-0.057,0.007,-88.280,-0.032,0.000,-0.521,0.001,-0.009,0.000,0.000,-0.001,0.000,-0.838,-0.028,0.242,0.000,1,1,1,1,0.000,0.000,0.036,0.023,0.004,0.004,0.001,0.001,0.036,0.004,0.000,0
20260703_205201,case01_boxes_2layer,6,62.2,1.000,27.231,430.407,-1.425,755.193,-10.797,0.000,0.275,38.884,-0.012,0.000,-0.105,0.009,-0.105,0.000,-0.060,0.007,-88.333,-0.032,0.000,-0.529,0.001,-0.009,0.000,0.000,-0.001,0.000,-0.847,-0.029,0.242,0.000,1,1,1,1,0.000,0.000,0.036,0.023,0.004,0.004,0.001,0.001,0.036,0.004,0.000,0
20260703_205201,case01_boxes_2layer,6,62.2,1.000,27.335,429.286,-1.425,755.221,-10.799,0.000,0.267,38.887,-0.011,0.000,-0.081,0.008,-0.081,0.000,-0.063,0.007,-88.383,-0.031,0.000,-0.507,0.001,-0.008,0.000,0.000,0.002,0.000,-0.777,-0.026,0.241,0.000,1,1,1,1,0.000,0.000,0.036,0.023,0.003,0.003,0.001,0.001,0.036,0.003,0.000,0
20260703_205201,case01_boxes_2layer,6,62.2,1.000,27.435,428.198,-1.425,755.248,-10.800,0.000,0.258,38.890,-0.010,0.000,-0.086,0.008,-0.086,0.000,-0.066,0.007,-88.431,-0.030,0.000,-0.480,0.000,-0.008,0.000,0.000,0.001,0.000,-0.784,-0.026,0.241,0.000,1,1,1,1,0.000,0.000,0.036,0.023,0.003,0.003,0.001,0.001,0.036,0.003,0.000,0
20260703_205201,case01_boxes_2layer,6,62.2,1.000,27.539,427.076,-1.425,755.274,-10.801,0.000,0.249,38.892,-0.010,0.000,-0.090,0.008,-0.090,0.000,-0.069,0.007,-88.481,-0.028,0.000,-0.494,0.000,-0.008,0.000,0.000,0.000,0.000,-0.790,-0.027,0.241,0.000,1,1,1,1,0.000,0.000,0.036,0.023,0.003,0.003,0.001,0.001,0.036,0.003,0.000,0
20260703_205201,case01_boxes_2layer,6,62.2,1.000,27.639,425.994,-1.425,755.299,-10.802,0.000,0.240,38.895,-0.010,0.000,-0.096,0.007,-0.096,0.000,-0.071,0.007,-88.529,-0.024,0.000,-0.479,0.000,-0.008,0.000,-0.001,-0.001,0.000,-0.865,-0.027,0.241,0.000,1,1,1,1,0.000,0.000,0.036,0.023,0.004,0.004,0.001,0.001,0.036,0.004,0.000,0
20260703_205201,case01_boxes_2layer,6,62.2,1.000,27.747,424.828,-1.425,755.324,-10.803,0.000,0.229,38.898,-0.010,0.001,-0.109,0.007,-0.109,0.000,-0.073,0.007,-88.581,-0.020,0.000,-0.525,0.000,-0.009,0.000,-0.001,-0.002,0.000,-0.891,-0.028,0.241,0.000,1,1,1,1,0.000,0.000,0.036,0.023,0.004,0.004,0.001,0.001,0.036,0.004,0.000,0
20260703_205201,case01_boxes_2layer,6,62.2,1.000,27.851,423.709,-1.425,755.347,-10.803,0.000,0.218,38.900,-0.009,0.001,-0.112,0.007,-0.112,0.001,-0.074,0.007,-88.633,-0.014,0.000,-0.516,0.000,-0.009,0.000,-0.001,-0.002,0.000,-0.915,-0.028,0.241,0.000,1,1,1,1,0.000,0.000,0.036,0.023,0.005,0.005,0.001,0.001,0.036,0.005,0.000,0
20260703_205201,case01_boxes_2layer,6,62.2,1.000,27.958,422.547,-1.425,755.370,-10.804,0.000,0.207,38.903,-0.008,0.001,-0.103,0.006,-0.104,0.001,-0.075,0.007,-88.688,-0.008,0.000,-0.551,0.000,-0.009,0.000,-0.001,-0.002,0.000,-0.921,-0.031,0.241,0.000,1,1,1,1,0.000,0.000,0.036,0.023,0.004,0.004,0.001,0.001,0.036,0.004,0.000,0
20260703_205201,case01_boxes_2layer,6,62.2,1.000,28.059,421.464,-1.425,755.390,-10.805,0.000,0.197,38.905,-0.008,0.001,-0.104,0.005,-0.104,0.001,-0.075,0.007,-88.741,-0.001,0.000,-0.526,0.000,-0.009,0.000,-0.001,-0.002,0.000,-0.928,-0.031,0.240,0.000,1,1,1,1,0.000,0.000,0.036,0.023,0.004,0.004,0.001,0.001,0.036,0.004,0.000,0
20260703_205201,case01_boxes_2layer,6,62.2,1.000,28.163,420.339,-1.425,755.410,-10.806,0.000,0.185,38.907,-0.008,0.001,-0.118,0.006,-0.118,0.001,-0.075,0.007,-88.796,0.005,0.000,-0.559,0.000,-0.009,0.000,-0.001,-0.002,0.000,-0.949,-0.032,0.240,0.000,1,1,1,1,0.000,0.000,0.036,0.023,0.004,0.004,0.001,0.001,0.036,0.004,0.000,0
20260703_205201,case01_boxes_2layer,6,62.2,1.000,28.271,419.174,-1.425,755.429,-10.807,0.000,0.173,38.909,-0.008,0.001,-0.121,0.005,-0.121,0.001,-0.074,0.007,-88.856,0.011,0.000,-0.593,0.000,-0.010,0.000,-0.001,-0.002,0.000,-0.969,-0.033,0.240,0.000,1,1,1,1,0.000,0.000,0.036,0.023,0.004,0.004,0.001,0.001,0.036,0.004,0.000,0
20260703_205201,case01_boxes_2layer,6,62.2,1.000,28.371,418.093,-1.425,755.446,-10.807,0.000,0.162,38.911,-0.007,0.001,-0.110,0.005,-0.110,0.000,-0.072,0.007,-88.912,0.014,0.000,-0.562,0.000,-0.010,0.000,-0.001,-0.002,0.000,-0.969,-0.033,0.240,0.000,1,1,1,1,0.000,0.000,0.036,0.023,0.004,0.004,0.001,0.001,0.036,0.004,0.000,0
20260703_205201,case01_boxes_2layer,6,62.2,1.000,28.471,417.012,-1.425,755.462,-10.808,0.000,0.151,38.912,-0.006,0.001,-0.113,0.004,-0.113,0.000,-0.071,0.007,-88.969,0.018,0.000,-0.572,0.000,-0.010,0.000,-0.001,-0.002,0.000,-0.969,-0.033,0.240,0.000,1,1,1,1,0.000,0.000,0.036,0.023,0.004,0.004,0.001,0.001,0.036,0.004,0.000,0
20260703_205201,case01_boxes_2layer,6,62.2,1.000,28.571,415.930,-1.425,755.476,-10.809,0.000,0.140,38.914,-0.006,0.000,-0.113,0.004,-0.113,0.000,-0.068,0.007,-89.027,0.021,0.000,-0.582,0.000,-0.010,0.000,0.000,-0.001,0.000,-0.970,-0.033,0.240,0.000,1,1,1,1,0.000,0.000,0.035,0.023,0.004,0.004,0.001,0.001,0.035,0.004,0.000,0
20260703_205201,case01_boxes_2layer,6,62.2,1.000,28.679,414.764,-1.425,755.491,-10.809,0.000,0.128,38.916,-0.006,0.000,-0.116,0.004,-0.116,0.000,-0.066,0.007,-89.091,0.026,0.000,-0.637,0.000,-0.010,0.000,0.000,-0.002,0.000,-0.968,-0.033,0.240,0.000,1,1,1,1,0.000,0.000,0.035,0.023,0.004,0.004,0.001,0.001,0.035,0.004,0.000,0
20260703_205201,case01_boxes_2layer,6,62.2,1.000,28.782,413.641,-1.425,755.503,-10.810,0.000,0.115,38.917,-0.006,0.000,-0.127,0.004,-0.127,0.000,-0.063,0.007,-89.153,0.026,0.000,-0.622,0.000,-0.011,0.000,0.000,-0.001,0.000,-0.982,-0.033,0.240,0.000,1,1,1,1,0.000,0.000,0.035,0.023,0.004,0.004,0.001,0.001,0.035,0.004,0.000,0
20260703_205201,case01_boxes_2layer,6,62.2,1.000,28.887,412.516,-1.425,755.515,-10.810,0.000,0.104,38.918,-0.005,0.000,-0.117,0.003,-0.117,0.000,-0.060,0.007,-89.216,0.027,0.000,-0.630,0.000,-0.011,0.000,0.000,-0.001,0.000,-0.979,-0.033,0.240,0.000,1,1,1,1,0.000,0.000,0.035,0.023,0.004,0.004,0.001,0.001,0.035,0.004,0.000,0
20260703_205201,case01_boxes_2layer,6,62.2,1.000,28.990,411.392,-1.425,755.525,-10.811,0.000,0.090,38.920,-0.005,0.000,-0.131,0.003,-0.131,0.000,-0.058,0.007,-89.280,0.027,0.000,-0.637,0.000,-0.011,0.000,0.000,-0.001,0.000,-0.993,-0.033,0.240,0.000,1,1,1,1,0.000,0.000,0.035,0.023,0.004,0.004,0.001,0.001,0.035,0.004,0.000,0
20260703_205201,case01_boxes_2layer,6,62.2,1.000,29.099,410.223,-1.425,755.534,-10.811,0.000,0.078,38.921,-0.004,0.000,-0.121,0.003,-0.121,0.000,-0.055,0.007,-89.347,0.027,0.000,-0.669,0.000,-0.011,0.000,0.000,-0.001,0.000,-1.080,-0.033,0.239,0.000,1,1,1,1,0.000,0.000,0.035,0.023,0.005,0.005,0.001,0.001,0.035,0.005,0.000,0
20260703_205201,case01_boxes_2layer,6,62.2,1.000,29.203,409.099,-1.425,755.541,-10.812,0.000,0.065,38.922,-0.004,0.000,-0.132,0.003,-0.132,0.000,-0.053,0.007,-89.412,0.025,0.000,-0.651,0.000,-0.011,0.000,0.000,-0.001,0.000,-1.007,-0.034,0.239,0.000,1,1,1,1,0.000,0.000,0.035,0.023,0.004,0.004,0.001,0.001,0.035,0.004,0.000,0
20260703_205201,case01_boxes_2layer,6,62.2,1.000,29.303,408.017,-1.425,755.547,-10.812,0.000,0.053,38.923,-0.003,0.000,-0.125,0.002,-0.125,0.000,-0.050,0.007,-89.475,0.022,0.000,-0.632,0.000,-0.011,0.000,0.000,-0.002,0.000,-1.095,-0.034,0.239,0.000,1,1,1,1,0.000,0.000,0.035,0.023,0.005,0.005,0.001,0.001,0.035,0.005,0.000,0
20260703_205201,case01_boxes_2layer,6,62.2,1.000,29.407,406.892,-1.425,755.552,-10.812,0.000,0.040,38.924,-0.003,0.000,-0.123,0.002,-0.123,0.000,-0.048,0.007,-89.542,0.021,0.000,-0.664,0.000,-0.011,0.000,0.000,-0.001,0.000,-1.094,-0.034,0.239,0.000,1,1,1,1,0.000,0.000,0.035,0.023,0.005,0.005,0.001,0.001,0.035,0.005,0.000,0
20260703_205201,case01_boxes_2layer,6,62.2,1.000,29.511,405.763,-1.425,755.556,-10.812,0.000,0.026,38.925,-0.003,0.000,-0.139,0.002,-0.139,0.000,-0.046,0.007,-89.609,0.018,0.000,-0.673,0.000,-0.011,0.000,0.000,-0.001,0.000,-1.115,-0.035,0.239,0.000,1,1,1,1,0.000,0.000,0.035,0.023,0.005,0.005,0.001,0.001,0.035,0.005,0.000,0
20260703_205201,case01_boxes_2layer,6,62.2,1.000,29.615,404.645,-1.425,755.558,-10.813,0.000,0.014,38.926,-0.002,0.000,-0.126,0.002,-0.126,0.000,-0.045,0.007,-89.676,0.015,0.000,-0.673,0.000,-0.011,0.000,0.000,-0.001,0.000,-1.114,-0.038,0.239,0.000,1,1,1,1,0.000,0.000,0.035,0.023,0.005,0.005,0.001,0.001,0.035,0.005,0.000,0
20260703_205201,case01_boxes_2layer,6,62.2,1.000,29.719,403.518,-1.425,755.558,-10.813,0.000,0.001,38.926,-0.002,0.000,-0.130,0.001,-0.130,0.000,-0.044,0.007,-89.745,0.013,0.000,-0.687,0.000,-0.012,0.000,0.000,-0.001,0.000,-1.116,-0.038,0.239,0.000,1,1,1,1,0.000,0.000,0.035,0.023,0.005,0.005,0.001,0.001,0.035,0.005,0.000,0
20260703_205201,case01_boxes_2layer,6,62.2,1.000,29.827,402.350,-1.425,755.558,-10.813,0.000,-0.014,38.927,-0.002,0.000,-0.143,0.001,-0.143,0.000,-0.043,0.007,-89.817,0.010,0.000,-0.720,0.000,-0.012,0.000,0.001,-0.001,0.000,-1.137,-0.035,0.239,0.000,1,1,1,1,0.000,0.000,0.035,0.023,0.005,0.005,0.001,0.001,0.035,0.005,0.000,0
20260703_205201,case01_boxes_2layer,6,62.2,1.000,29.960,400.912,-1.425,755.555,-10.813,0.000,-0.031,38.928,-0.002,0.000,-0.171,0.001,-0.171,-0.001,-0.042,0.007,-89.907,0.009,0.000,-0.896,0.000,-0.012,0.000,0.001,-0.001,0.000,-1.103,-0.037,0.239,0.000,1,1,1,1,0.000,0.000,0.035,0.023,0.004,0.004,0.001,0.001,0.035,0.004,0.000,0
20260703_205201,case01_boxes_2layer,6,62.2,1.000,30.075,399.668,-1.425,755.550,-10.813,0.000,-0.047,38.928,-0.001,0.000,-0.160,0.001,-0.160,0.000,-0.041,0.007,-89.985,0.004,0.000,-0.785,0.000,-0.012,0.000,0.000,-0.001,0.000,-1.148,-0.039,0.239,0.000,1,1,1,1,0.000,0.000,0.035,0.023,0.005,0.005,0.001,0.001,0.035,0.005,0.000,0
20260703_205201,case01_boxes_2layer,6,62.2,1.000,30.178,398.547,-1.425,755.545,-10.813,0.000,-0.061,38.929,0.000,0.000,-0.138,0.001,-0.138,0.000,-0.041,0.007,-90.057,0.002,0.000,-0.719,0.000,-0.012,0.000,0.000,-0.002,0.000,-1.153,-0.039,0.239,0.000,1,1,1,1,0.000,0.000,0.035,0.023,0.005,0.005,0.001,0.001,0.035,0.005,0.000,0
20260703_205201,case01_boxes_2layer,6,62.2,1.000,30.283,397.421,-1.425,755.538,-10.813,0.000,-0.076,38.929,0.000,0.000,-0.152,0.000,-0.152,0.000,-0.041,0.007,-90.130,0.001,0.000,-0.732,0.000,-0.012,0.000,0.000,-0.002,0.000,-1.178,-0.040,0.239,0.000,1,1,1,1,0.000,0.000,0.035,0.023,0.005,0.005,0.001,0.001,0.035,0.005,0.000,0
20260703_205201,case01_boxes_2layer,6,62.2,1.000,30.387,396.296,-1.425,755.529,-10.813,0.000,-0.089,38.930,0.000,0.000,-0.138,0.000,-0.138,0.000,-0.041,0.007,-90.204,-0.001,0.000,-0.738,0.000,-0.012,0.000,0.000,-0.001,0.000,-1.186,-0.040,0.239,0.000,1,1,1,1,0.000,0.000,0.035,0.023,0.005,0.005,0.001,0.001,0.035,0.005,0.000,0
20260703_205201,case01_boxes_2layer,6,62.2,1.000,30.494,395.133,-1.425,755.518,-10.813,0.000,-0.105,38.930,0.001,0.000,-0.159,0.000,-0.159,0.000,-0.041,0.007,-90.281,-0.002,0.000,-0.775,0.000,-0.013,0.000,0.000,-0.002,0.000,-1.216,-0.041,0.238,0.000,1,1,1,1,0.000,0.000,0.035,0.023,0.005,0.005,0.001,0.001,0.035,0.005,0.000,0
20260703_205201,case01_boxes_2layer,6,62.2,1.000,30.603,393.961,-1.425,755.506,-10.813,0.000,-0.121,38.930,0.001,0.000,-0.159,0.000,-0.159,0.000,-0.042,0.007,-90.360,-0.002,0.000,-0.791,0.000,-0.013,0.000,0.000,-0.002,0.000,-1.246,-0.039,0.238,0.000,1,1,1,1,0.000,0.000,0.035,0.023,0.006,0.006,0.001,0.001,0.035,0.006,0.000,0
20260703_205201,case01_boxes_2layer,6,62.2,1.000,30.703,392.879,-1.425,755.493,-10.813,0.000,-0.136,38.930,0.001,0.000,-0.144,0.000,-0.144,0.000,-0.042,0.007,-90.434,-0.002,0.000,-0.740,0.000,-0.013,0.000,0.000,-0.001,0.000,-1.256,-0.042,0.238,0.000,1,1,1,1,0.000,0.000,0.035,0.023,0.006,0.006,0.001,0.001,0.035,0.006,0.000,0
20260703_205201,case01_boxes_2layer,6,62.2,1.000,30.807,391.756,-1.425,755.479,-10.813,0.000,-0.151,38.930,0.002,0.000,-0.150,-0.001,-0.150,0.000,-0.042,0.007,-90.512,-0.001,0.000,-0.780,0.000,-0.013,0.000,0.000,-0.002,0.000,-1.266,-0.043,0.238,0.000,1,1,1,1,0.000,0.000,0.035,0.023,0.005,0.006,0.001,0.001,0.035,0.006,0.000,0
20260703_205201,case01_boxes_2layer,6,62.2,1.000,30.911,390.632,-1.425,755.462,-10.813,0.000,-0.167,38.930,0.003,0.000,-0.167,-0.001,-0.167,0.000,-0.042,0.007,-90.592,0.000,0.000,-0.793,0.000,-0.013,0.000,0.000,-0.002,0.000,-1.301,-0.040,0.238,0.000,1,1,1,1,0.000,0.000,0.035,0.023,0.006,0.006,0.001,0.001,0.035,0.006,0.000,0
20260703_205201,case01_boxes_2layer,6,62.2,1.000,31.011,389.550,-1.425,755.445,-10.812,0.000,-0.183,38.930,0.003,0.000,-0.151,-0.001,-0.151,0.000,-0.042,0.007,-90.669,0.001,0.000,-0.774,0.000,-0.014,0.000,0.000,-0.002,0.000,-1.313,-0.041,0.238,0.000,1,1,1,1,0.000,0.000,0.035,0.023,0.006,0.006,0.001,0.001,0.035,0.006,0.000,0
20260703_205201,case01_boxes_2layer,6,62.2,1.000,31.115,388.427,-1.425,755.425,-10.812,0.000,-0.198,38.930,0.003,0.000,-0.152,-0.001,-0.152,0.000,-0.041,0.007,-90.751,0.002,0.000,-0.814,0.000,-0.014,0.000,0.000,-0.002,0.000,-1.323,-0.041,0.238,0.000,1,1,1,1,0.000,0.000,0.035,0.023,0.006,0.006,0.001,0.001,0.035,0.006,0.000,0
20260703_205201,case01_boxes_2layer,6,62.2,1.000,31.215,387.340,-1.425,755.404,-10.812,0.000,-0.213,38.930,0.003,0.000,-0.155,-0.001,-0.155,0.000,-0.041,0.007,-90.830,0.003,0.000,-0.796,0.000,-0.014,0.000,0.000,-0.002,0.000,-1.339,-0.042,0.238,0.000,1,1,1,1,0.000,0.000,0.035,0.023,0.006,0.006,0.001,0.001,0.035,0.006,0.000,0
20260703_205201,case01_boxes_2layer,6,62.2,1.000,31.315,386.258,-1.425,755.382,-10.811,0.000,-0.229,38.929,0.004,0.000,-0.157,-0.001,-0.157,0.000,-0.041,0.007,-90.910,0.004,0.000,-0.802,0.000,-0.014,0.000,0.000,-0.002,0.000,-1.356,-0.046,0.238,0.000,1,1,1,1,0.000,0.000,0.035,0.023,0.006,0.006,0.001,0.001,0.035,0.006,0.000,0
20260703_205201,case01_boxes_2layer,6,62.2,1.000,31.419,385.137,-1.425,755.358,-10.811,0.000,-0.245,38.929,0.005,0.000,-0.165,-0.002,-0.165,0.000,-0.040,0.007,-90.995,0.006,0.000,-0.847,0.000,-0.014,0.000,0.000,-0.003,0.000,-1.372,-0.046,0.238,0.000,1,1,1,1,0.000,0.000,0.035,0.023,0.006,0.006,0.001,0.001,0.035,0.006,0.000,0
20260703_205201,case01_boxes_2layer,6,62.2,1.000,31.523,384.013,-1.425,755.331,-10.810,0.000,-0.264,38.929,0.005,0.000,-0.183,-0.002,-0.183,0.000,-0.039,0.007,-91.082,0.009,0.000,-0.865,0.000,-0.015,0.000,0.000,-0.003,0.000,-1.410,-0.044,0.238,0.000,1,1,1,1,0.000,0.000,0.035,0.023,0.006,0.006,0.001,0.001,0.035,0.006,0.000,0
20260703_205201,case01_boxes_2layer,6,62.2,1.000,31.623,382.926,-1.425,755.304,-10.810,0.000,-0.280,38.928,0.005,0.000,-0.166,-0.002,-0.166,0.000,-0.038,0.007,-91.166,0.010,0.000,-0.850,0.000,-0.015,0.000,0.000,-0.002,0.000,-1.426,-0.044,0.238,0.000,1,1,1,1,0.000,0.000,0.035,0.023,0.006,0.006,0.001,0.001,0.035,0.006,0.000,0
20260703_205201,case01_boxes_2layer,6,62.2,1.000,31.727,381.808,-1.425,755.274,-10.809,0.000,-0.297,38.928,0.006,0.000,-0.168,-0.002,-0.168,0.000,-0.037,0.007,-91.255,0.012,0.000,-0.887,0.000,-0.015,0.000,0.000,-0.002,0.000,-1.443,-0.045,0.238,0.000,1,1,1,1,0.000,0.000,0.035,0.023,0.006,0.006,0.001,0.001,0.035,0.006,0.000,0
20260703_205201,case01_boxes_2layer,6,62.2,1.000,31.827,380.727,-1.425,755.243,-10.809,0.000,-0.314,38.927,0.006,0.000,-0.171,-0.002,-0.171,0.000,-0.036,0.007,-91.342,0.012,0.000,-0.869,0.000,-0.015,0.000,0.000,-0.002,0.000,-1.463,-0.046,0.238,0.000,1,1,1,1,0.000,0.000,0.035,0.023,0.006,0.007,0.001,0.001,0.035,0.007,0.000,0
20260703_205201,case01_boxes_2layer,6,62.2,1.000,31.927,379.644,-1.425,755.211,-10.808,0.000,-0.331,38.927,0.007,0.000,-0.173,-0.002,-0.174,0.000,-0.035,0.007,-91.430,0.014,0.000,-0.883,0.000,-0.016,0.000,0.000,-0.002,0.000,-1.482,-0.046,0.238,0.000,1,1,1,1,0.000,0.000,0.035,0.023,0.006,0.007,0.001,0.001,0.035,0.007,0.000,0
20260703_205201,case01_boxes_2layer,6,62.2,1.000,32.030,378.525,-1.425,755.176,-10.807,0.000,-0.350,38.926,0.007,0.000,-0.186,-0.002,-0.186,0.000,-0.033,0.007,-91.523,0.014,0.000,-0.923,0.000,-0.016,0.000,0.000,-0.001,0.000,-1.414,-0.048,0.238,0.000,1,1,1,1,0.000,0.000,0.035,0.023,0.005,0.005,0.002,0.002,0.035,0.005,0.000,0
20260703_205201,case01_boxes_2layer,6,62.2,1.000,32.131,377.443,-1.424,755.140,-10.806,0.000,-0.368,38.926,0.008,0.000,-0.176,-0.003,-0.176,0.000,-0.032,0.007,-91.613,0.014,0.000,-0.902,0.000,-0.016,0.000,0.000,-0.002,0.000,-1.438,-0.048,0.238,0.000,1,1,1,1,0.000,0.000,0.035,0.023,0.005,0.006,0.002,0.002,0.035,0.006,0.000,0
20260703_205201,case01_boxes_2layer,6,62.2,1.000,32.239,376.270,-1.424,755.099,-10.806,0.000,-0.386,38.925,0.008,0.000,-0.181,-0.003,-0.181,0.000,-0.030,0.007,-91.712,0.016,0.000,-0.990,0.000,-0.016,0.000,0.000,-0.002,0.000,-1.464,-0.049,0.238,0.000,1,1,1,1,0.000,0.000,0.035,0.023,0.006,0.006,0.002,0.002,0.035,0.006,0.000,0
20260703_205201,case01_boxes_2layer,6,62.2,1.000,32.343,375.152,-1.424,755.058,-10.805,0.000,-0.406,38.924,0.010,0.000,-0.204,-0.003,-0.204,0.000,-0.028,0.007,-91.808,0.016,0.000,-0.960,0.000,-0.016,0.000,0.000,-0.003,0.000,-1.518,-0.051,0.238,0.000,1,1,1,1,0.000,0.000,0.035,0.023,0.006,0.006,0.002,0.002,0.035,0.006,0.000,0
20260703_205201,case01_boxes_2layer,6,62.2,1.000,32.443,374.071,-1.424,755.017,-10.804,0.000,-0.423,38.924,0.008,0.000,-0.166,-0.002,-0.166,0.000,-0.027,0.007,-91.902,0.015,0.000,-0.937,0.000,-0.016,0.000,0.000,0.001,0.000,-1.443,-0.049,0.238,0.000,1,1,1,1,0.000,0.000,0.035,0.023,0.005,0.005,0.002,0.002,0.035,0.005,0.000,0
20260703_205201,case01_boxes_2layer,6,62.2,1.000,32.551,372.898,-1.424,754.970,-10.803,0.000,-0.442,38.923,0.010,0.000,-0.191,-0.003,-0.191,0.000,-0.026,0.007,-92.002,0.013,0.000,-1.007,0.000,-0.016,0.000,0.000,0.000,0.000,-1.508,-0.047,0.238,0.000,1,1,1,1,0.000,0.000,0.035,0.023,0.006,0.006,0.002,0.002,0.035,0.006,0.000,0
20260703_205201,case01_boxes_2layer,6,62.2,1.000,32.659,371.735,-1.424,754.921,-10.802,0.000,-0.460,38.922,0.010,0.000,-0.185,-0.003,-0.185,0.000,-0.025,0.007,-92.103,0.011,0.000,-1.004,0.000,-0.016,0.000,0.000,-0.002,0.000,-1.561,-0.049,0.237,0.000,1,1,1,1,0.000,0.000,0.035,0.023,0.007,0.007,0.002,0.002,0.035,0.007,0.000,0
20260703_205201,case01_boxes_2layer,6,62.2,1.000,32.766,370.576,-1.424,754.870,-10.801,0.000,-0.482,38.921,0.012,0.000,-0.215,-0.004,-0.215,0.000,-0.023,0.007,-92.205,0.012,0.000,-1.019,0.000,-0.017,0.000,0.000,-0.004,0.000,-1.533,-0.052,0.237,0.000,1,1,1,1,0.000,0.000,0.035,0.023,0.006,0.006,0.002,0.002,0.035,0.006,0.000,0
20260703_205201,case01_boxes_2layer,6,62.2,1.000,32.867,369.490,-1.424,754.821,-10.799,0.000,-0.502,38.920,0.012,0.000,-0.201,-0.004,-0.201,0.000,-0.022,0.007,-92.303,0.012,0.000,-0.981,0.000,-0.017,0.000,0.000,-0.004,0.000,-1.583,-0.053,0.237,0.000,1,1,1,1,0.000,0.000,0.035,0.023,0.006,0.006,0.002,0.002,0.035,0.006,0.000,0
20260703_205201,case01_boxes_2layer,6,62.2,1.000,32.975,368.322,-1.424,754.765,-10.798,0.000,-0.525,38.919,0.014,0.000,-0.227,-0.005,-0.228,0.000,-0.021,0.007,-92.411,0.015,0.000,-1.082,0.000,-0.018,0.000,0.000,-0.005,0.000,-1.662,-0.056,0.237,0.000,1,1,1,1,0.000,0.000,0.035,0.023,0.007,0.007,0.002,0.002,0.035,0.007,0.000,0
20260703_205201,case01_boxes_2layer,6,62.2,1.000,33.083,367.158,-1.424,754.708,-10.796,0.000,-0.548,38.917,0.016,0.000,-0.238,-0.005,-0.238,0.000,-0.019,0.007,-92.522,0.017,0.000,-1.113,0.000,-0.018,0.000,0.000,-0.006,0.000,-1.745,-0.055,0.237,0.000,1,1,1,1,0.000,0.000,0.035,0.023,0.008,0.008,0.002,0.002,0.035,0.008,0.000,0
20260703_205201,case01_boxes_2layer,6,62.2,1.000,33.183,366.077,-1.424,754.652,-10.795,0.000,-0.570,38.916,0.015,0.000,-0.216,-0.005,-0.216,0.000,-0.017,0.007,-92.628,0.017,0.000,-1.062,0.000,-0.019,0.000,0.000,-0.005,0.000,-1.795,-0.056,0.237,0.000,1,1,1,1,0.000,0.000,0.035,0.023,0.008,0.008,0.002,0.002,0.035,0.008,0.000,0
20260703_205201,case01_boxes_2layer,6,62.2,1.000,33.287,364.958,-1.424,754.591,-10.794,0.000,-0.592,38.915,0.015,0.000,-0.219,-0.005,-0.220,0.000,-0.015,0.007,-92.741,0.020,0.000,-1.129,0.000,-0.019,0.000,0.000,-0.004,0.000,-1.719,-0.058,0.237,0.000,1,1,1,1,0.000,0.000,0.035,0.023,0.006,0.006,0.002,0.002,0.035,0.006,0.000,0
20260703_205201,case01_boxes_2layer,6,62.2,1.000,33.391,363.834,-1.424,754.529,-10.792,0.000,-0.617,38.914,0.018,0.000,-0.246,-0.006,-0.246,0.000,-0.013,0.007,-92.857,0.021,0.000,-1.161,0.000,-0.020,0.000,0.000,-0.005,0.000,-1.792,-0.060,0.237,0.000,1,1,1,1,0.000,0.000,0.035,0.023,0.007,0.007,0.002,0.002,0.035,0.007,0.000,0
20260703_205201,case01_boxes_2layer,6,62.2,1.000,33.491,362.755,-1.424,754.466,-10.790,0.000,-0.639,38.912,0.017,0.000,-0.228,-0.005,-0.229,0.000,-0.011,0.007,-92.972,0.021,0.000,-1.141,0.000,-0.020,0.000,0.000,-0.004,0.000,-1.840,-0.062,0.237,0.000,1,1,1,1,0.000,0.000,0.035,0.023,0.007,0.007,0.002,0.002,0.035,0.007,0.000,0
20260703_205201,case01_boxes_2layer,6,62.2,1.000,33.594,361.635,-1.424,754.398,-10.788,0.000,-0.663,38.911,0.018,0.000,-0.233,-0.006,-0.234,0.000,-0.009,0.007,-93.092,0.023,0.000,-1.208,0.000,-0.021,0.000,0.000,-0.004,0.000,-1.887,-0.063,0.237,0.000,1,1,1,1,0.000,0.000,0.035,0.023,0.008,0.008,0.002,0.002,0.035,0.008,0.000,0
20260703_205201,case01_boxes_2layer,6,62.2,1.000,33.698,360.514,-1.424,754.328,-10.786,0.000,-0.686,38.909,0.019,0.000,-0.234,-0.006,-0.235,0.000,-0.006,0.007,-93.216,0.023,0.000,-1.233,0.000,-0.021,0.000,0.000,-0.004,0.000,-1.933,-0.065,0.237,0.000,1,1,1,1,0.000,0.000,0.035,0.023,0.008,0.008,0.002,0.002,0.035,0.008,0.000,0
20260703_205201,case01_boxes_2layer,6,62.2,1.000,33.807,359.347,-1.424,754.252,-10.784,0.000,-0.712,38.908,0.022,0.000,-0.262,-0.006,-0.262,0.000,-0.004,0.007,-93.346,0.025,0.000,-1.307,0.000,-0.021,0.000,0.000,-0.004,0.000,-1.880,-0.063,0.237,0.000,1,1,1,1,0.000,0.000,0.035,0.023,0.007,0.007,0.002,0.002,0.035,0.007,0.000,0
20260703_205201,case01_boxes_2layer,6,62.2,1.000,33.907,358.267,-1.424,754.180,-10.782,0.000,-0.737,38.906,0.021,0.000,-0.243,-0.006,-0.243,0.000,-0.002,0.007,-93.470,0.023,0.000,-1.232,0.000,-0.022,0.000,0.000,-0.004,0.000,-1.929,-0.065,0.237,0.000,1,1,1,1,0.000,0.000,0.035,0.023,0.007,0.007,0.002,0.002,0.035,0.007,0.000,0
20260703_205201,case01_boxes_2layer,6,62.2,1.000,34.011,357.147,-1.424,754.102,-10.780,0.000,-0.764,38.904,0.024,0.000,-0.270,-0.007,-0.271,0.000,0.001,0.007,-93.599,0.023,0.000,-1.298,0.000,-0.022,0.000,0.000,-0.004,0.000,-2.012,-0.068,0.237,0.000,1,1,1,1,0.000,0.000,0.035,0.023,0.008,0.008,0.002,0.002,0.035,0.008,0.000,0
20260703_205201,case01_boxes_2layer,6,62.2,1.000,34.119,355.983,-1.424,754.018,-10.777,0.000,-0.789,38.903,0.023,0.000,-0.254,-0.006,-0.254,0.000,0.003,0.007,-93.737,0.024,0.000,-1.371,0.000,-0.022,0.000,0.000,-0.004,0.000,-2.068,-0.065,0.237,0.000,1,1,1,1,0.000,0.000,0.035,0.023,0.008,0.009,0.002,0.002,0.035,0.009,0.000,0
20260703_205201,case01_boxes_2layer,6,62.2,1.000,34.227,354.820,-1.424,753.931,-10.775,0.000,-0.817,38.901,0.026,0.000,-0.276,-0.007,-0.278,0.000,0.005,0.007,-93.876,0.023,0.000,-1.393,0.000,-0.023,0.000,0.000,-0.003,0.000,-2.017,-0.068,0.237,0.000,1,1,1,1,0.000,0.000,0.035,0.023,0.007,0.007,0.002,0.002,0.035,0.007,0.000,0
20260703_205201,case01_boxes_2layer,6,62.2,1.000,34.515,351.710,-1.424,753.684,-10.767,0.000,-0.894,38.895,0.076,0.000,-0.771,-0.019,-0.774,0.000,0.012,0.007,-94.262,0.061,0.000,-3.857,0.000,-0.024,0.000,0.000,-0.012,0.000,-2.168,-0.073,0.237,0.000,1,1,1,1,0.000,0.000,0.035,0.023,0.008,0.009,0.003,0.003,0.035,0.009,0.000,0
20260703_205201,case01_boxes_2layer,6,62.2,1.000,34.619,350.596,-1.424,753.590,-10.764,0.000,-0.921,38.893,0.029,0.000,-0.275,-0.008,-0.276,0.000,0.014,0.007,-94.404,0.021,0.000,-1.429,0.000,-0.024,0.000,0.000,-0.004,0.000,-2.238,-0.070,0.237,0.000,1,1,1,1,0.000,0.000,0.035,0.023,0.009,0.009,0.003,0.003,0.035,0.009,0.000,0
20260703_205201,case01_boxes_2layer,6,62.2,1.000,34.727,349.433,-1.424,753.489,-10.761,0.000,-0.951,38.891,0.033,0.000,-0.303,-0.008,-0.305,0.000,0.016,0.007,-94.556,0.022,0.000,-1.519,0.000,-0.025,0.000,0.000,-0.004,0.000,-2.197,-0.074,0.237,0.000,1,1,1,1,0.000,0.000,0.035,0.023,0.008,0.008,0.003,0.003,0.035,0.008,0.000,0
20260703_205201,case01_boxes_2layer,6,62.2,1.000,34.835,348.272,-1.424,753.385,-10.758,0.000,-0.983,38.889,0.035,0.000,-0.315,-0.009,-0.317,0.000,0.018,0.007,-94.711,0.022,0.000,-1.547,0.000,-0.025,0.000,0.000,-0.005,0.000,-2.312,-0.078,0.237,0.000,1,1,1,1,0.000,0.000,0.035,0.023,0.009,0.010,0.003,0.003,0.035,0.010,0.000,0
20260703_205201,case01_boxes_2layer,6,62.2,1.000,34.939,347.154,-1.424,753.281,-10.754,0.000,-1.012,38.886,0.033,0.000,-0.289,-0.008,-0.291,0.000,0.020,0.007,-94.863,0.021,0.000,-1.521,0.000,-0.026,0.000,0.000,-0.004,0.000,-2.242,-0.075,0.237,0.000,1,1,1,1,0.000,0.000,0.035,0.023,0.008,0.008,0.003,0.003,0.035,0.008,0.000,0
20260703_205201,case01_boxes_2layer,6,62.2,1.000,35.043,346.036,-1.424,753.174,-10.751,0.000,-1.041,38.884,0.034,0.000,-0.295,-0.008,-0.297,0.000,0.022,0.007,-95.017,0.020,0.000,-1.536,0.000,-0.026,0.000,0.001,0.000,0.000,-2.222,-0.075,0.237,0.000,1,1,1,1,0.000,0.000,0.035,0.023,0.007,0.008,0.003,0.003,0.035,0.008,0.000,0
20260703_205201,case01_boxes_2layer,6,62.2,1.000,35.151,344.874,-1.424,753.060,-10.747,0.000,-1.072,38.882,0.036,0.000,-0.305,-0.009,-0.307,0.000,0.024,0.007,-95.176,0.016,0.000,-1.591,0.000,-0.026,0.000,0.001,-0.001,0.000,-2.226,-0.075,0.237,0.000,1,1,1,1,0.000,0.000,0.035,0.023,0.007,0.008,0.003,0.003,0.035,0.008,0.000,0
20260703_205201,case01_boxes_2layer,6,62.2,1.000,35.255,343.757,-1.424,752.947,-10.744,0.000,-1.102,38.880,0.036,0.000,-0.296,-0.009,-0.298,0.000,0.025,0.007,-95.330,0.013,0.000,-1.546,0.000,-0.026,0.000,0.000,-0.004,0.000,-2.332,-0.078,0.237,0.000,1,1,1,1,0.000,0.000,0.035,0.023,0.009,0.009,0.003,0.003,0.035,0.009,0.000,0
20260703_205201,case01_boxes_2layer,6,62.2,1.000,35.359,342.641,-1.424,752.831,-10.740,0.000,-1.133,38.877,0.040,0.000,-0.314,-0.010,-0.316,0.000,0.027,0.007,-95.488,0.015,0.000,-1.578,0.000,-0.027,0.000,0.000,-0.007,0.000,-2.449,-0.082,0.237,0.000,1,1,1,1,0.000,0.000,0.035,0.023,0.010,0.010,0.003,0.003,0.035,0.010,0.000,0
20260703_205201,case01_boxes_2layer,6,62.2,1.000,35.466,341.485,-1.424,752.707,-10.735,0.000,-1.169,38.874,0.047,0.000,-0.356,-0.012,-0.359,0.000,0.028,0.007,-95.656,0.018,0.000,-1.682,0.000,-0.028,0.000,-0.001,-0.009,0.000,-2.470,-0.083,0.237,0.000,1,1,1,1,0.000,0.000,0.035,0.023,0.009,0.009,0.003,0.003,0.035,0.009,0.000,0
20260703_205201,case01_boxes_2layer,6,62.2,1.000,35.570,340.369,-1.424,752.583,-10.730,0.000,-1.205,38.871,0.049,0.000,-0.364,-0.012,-0.367,0.001,0.030,0.007,-95.824,0.021,0.000,-1.674,0.000,-0.029,0.000,-0.001,-0.009,0.000,-2.641,-0.089,0.237,0.000,1,1,1,1,0.000,0.000,0.035,0.023,0.011,0.011,0.003,0.003,0.035,0.011,0.000,0
20260703_205201,case01_boxes_2layer,6,62.2,1.000,35.675,339.248,-1.424,752.456,-10.725,0.000,-1.239,38.868,0.048,0.001,-0.343,-0.012,-0.346,0.001,0.033,0.007,-95.997,0.025,-0.001,-1.736,0.000,-0.029,0.000,-0.001,-0.009,0.000,-2.613,-0.088,0.236,0.000,1,1,1,1,0.000,0.000,0.035,0.023,0.009,0.010,0.003,0.003,0.035,0.010,0.000,0
20260703_205201,case01_boxes_2layer,6,62.2,1.000,35.778,338.137,-1.424,752.325,-10.720,0.000,-1.275,38.864,0.051,0.001,-0.354,-0.012,-0.358,0.001,0.036,0.007,-96.175,0.029,-0.001,-1.777,-0.001,-0.030,0.000,-0.001,-0.009,0.000,-2.741,-0.092,0.236,0.000,1,1,1,1,0.000,0.000,0.035,0.023,0.010,0.011,0.003,0.003,0.035,0.011,0.000,0
20260703_205201,case01_boxes_2layer,6,62.2,1.000,35.883,337.019,-1.424,752.190,-10.714,0.000,-1.315,38.861,0.059,0.001,-0.399,-0.014,-0.403,0.001,0.039,0.007,-96.360,0.034,-0.001,-1.846,-0.001,-0.031,0.000,-0.001,-0.010,0.000,-2.928,-0.093,0.236,0.000,1,1,1,1,0.000,0.000,0.035,0.023,0.012,0.013,0.004,0.004,0.035,0.013,0.000,0
20260703_205201,case01_boxes_2layer,6,62.2,1.000,35.991,335.862,-1.424,752.046,-10.708,0.000,-1.355,38.857,0.061,0.001,-0.406,-0.015,-0.410,0.001,0.043,0.007,-96.557,0.040,-0.001,-1.971,-0.001,-0.032,0.000,-0.001,-0.009,0.000,-2.934,-0.099,0.236,0.000,1,1,1,1,0.000,0.000,0.035,0.023,0.011,0.012,0.004,0.004,0.035,0.012,0.000,0
20260703_205201,case01_boxes_2layer,6,62.2,1.000,36.091,334.791,-1.424,751.909,-10.702,0.001,-1.392,38.853,0.058,0.001,-0.373,-0.014,-0.377,0.001,0.047,0.006,-96.744,0.040,0.000,-1.876,-0.001,-0.033,0.000,0.000,-0.008,0.000,-2.895,-0.097,0.236,0.000,1,1,1,1,0.000,0.000,0.035,0.023,0.010,0.010,0.004,0.004,0.035,0.010,0.000,0
20260703_205201,case01_boxes_2layer,6,62.2,1.000,36.195,333.677,-1.424,751.762,-10.696,0.001,-1.431,38.849,0.062,0.000,-0.389,-0.014,-0.393,0.001,0.052,0.006,-96.944,0.045,0.000,-2.001,-0.001,-0.034,0.000,-0.001,-0.009,0.000,-3.034,-0.102,0.236,0.000,1,1,1,1,0.000,0.000,0.035,0.023,0.011,0.012,0.004,0.004,0.035,0.012,0.000,0
20260703_205201,case01_boxes_2layer,6,62.2,1.000,36.303,332.525,-1.423,751.606,-10.689,0.001,-1.475,38.845,0.071,0.000,-0.434,-0.016,-0.439,0.001,0.057,0.006,-97.157,0.050,0.000,-2.128,-0.001,-0.035,0.000,0.000,-0.009,0.000,-3.049,-0.103,0.236,0.000,1,1,1,1,0.000,0.000,0.035,0.023,0.010,0.011,0.004,0.004,0.035,0.011,0.000,0
20260703_205201,case01_boxes_2layer,6,62.2,1.000,36.404,331.440,-1.423,751.454,-10.682,0.001,-1.515,38.841,0.067,0.000,-0.400,-0.015,-0.405,0.001,0.062,0.006,-97.362,0.049,0.000,-2.053,-0.001,-0.036,0.000,0.000,-0.007,0.000,-3.194,-0.107,0.236,0.000,1,1,1,1,0.000,0.000,0.035,0.023,0.012,0.013,0.004,0.004,0.035,0.013,0.000,0
20260703_205201,case01_boxes_2layer,6,62.2,1.000,36.507,330.344,-1.423,751.296,-10.675,0.001,-1.557,38.837,0.072,0.000,-0.420,-0.016,-0.426,0.001,0.067,0.006,-97.575,0.051,0.000,-2.122,-0.001,-0.037,0.000,0.000,-0.010,0.000,-3.357,-0.106,0.236,0.000,1,1,1,1,0.000,0.000,0.035,0.023,0.014,0.014,0.004,0.004,0.035,0.014,0.000,0
20260703_205201,case01_boxes_2layer,6,62.2,1.000,36.611,329.237,-1.423,751.132,-10.667,0.001,-1.603,38.832,0.082,0.000,-0.467,-0.018,-0.474,0.001,0.072,0.006,-97.795,0.054,0.000,-2.205,-0.001,-0.038,0.000,0.000,-0.010,0.000,-3.379,-0.114,0.236,0.000,1,1,1,1,0.000,0.000,0.034,0.023,0.013,0.013,0.004,0.004,0.034,0.013,0.000,0
20260703_205201,case01_boxes_2layer,6,62.2,1.000,36.715,328.126,-1.423,750.963,-10.660,0.001,-1.642,38.829,0.069,0.000,-0.387,-0.014,-0.393,0.001,0.077,0.007,-98.020,0.052,0.000,-2.245,-0.001,-0.038,0.000,0.001,0.000,0.000,-3.183,-0.107,0.236,0.000,1,1,1,1,0.000,0.000,0.034,0.023,0.010,0.010,0.005,0.005,0.034,0.010,0.000,0
20260703_205201,case01_boxes_2layer,6,62.2,1.000,36.815,327.060,-1.423,750.797,-10.652,0.001,-1.683,38.825,0.076,0.000,-0.414,-0.016,-0.420,0.000,0.082,0.007,-98.236,0.045,0.000,-2.164,-0.001,-0.038,0.000,0.001,-0.004,0.000,-3.369,-0.113,0.236,0.000,1,1,1,1,0.000,0.000,0.034,0.023,0.012,0.013,0.005,0.005,0.034,0.013,0.000,0
20260703_205201,case01_boxes_2layer,6,62.2,1.000,36.923,325.909,-1.423,750.613,-10.643,0.001,-1.732,38.820,0.092,-0.001,-0.485,-0.019,-0.493,0.000,0.087,0.007,-98.474,0.047,0.000,-2.379,-0.001,-0.039,0.000,0.000,-0.009,0.000,-3.451,-0.116,0.236,0.000,1,1,1,1,0.000,0.000,0.034,0.023,0.013,0.013,0.005,0.005,0.034,0.013,0.000,0
20260703_205201,case01_boxes_2layer,6,62.2,1.000,37.031,324.763,-1.423,750.423,-10.633,0.001,-1.783,38.814,0.101,0.000,-0.513,-0.022,-0.522,0.001,0.091,0.007,-98.717,0.048,0.000,-2.437,-0.001,-0.040,0.000,0.000,-0.013,0.000,-3.545,-0.119,0.236,0.000,1,1,1,1,0.000,0.000,0.034,0.023,0.013,0.013,0.005,0.005,0.034,0.013,0.000,0
20260703_205201,case01_boxes_2layer,6,62.2,1.000,37.135,323.656,-1.423,750.235,-10.624,0.001,-1.831,38.809,0.097,0.000,-0.479,-0.021,-0.489,0.001,0.096,0.006,-98.961,0.050,-0.001,-2.433,-0.001,-0.041,0.000,0.000,-0.012,0.000,-3.774,-0.120,0.236,0.000,1,1,1,1,0.000,0.000,0.034,0.023,0.015,0.016,0.005,0.005,0.034,0.016,0.000,0
20260703_205201,case01_boxes_2layer,6,62.2,1.000,37.243,322.510,-1.423,750.035,-10.612,0.001,-1.885,38.802,0.112,0.000,-0.540,-0.024,-0.551,0.001,0.102,0.006,-99.221,0.054,-0.001,-2.599,-0.001,-0.043,0.000,0.000,-0.014,0.000,-3.879,-0.131,0.236,0.000,1,1,1,1,0.000,0.000,0.034,0.023,0.015,0.016,0.005,0.005,0.034,0.016,0.000,0
20260703_205201,case01_boxes_2layer,6,62.2,1.000,37.343,321.449,-1.423,749.844,-10.601,0.001,-1.937,38.796,0.111,0.000,-0.517,-0.024,-0.528,0.001,0.107,0.006,-99.470,0.054,-0.001,-2.493,-0.001,-0.044,0.000,-0.001,-0.015,0.000,-3.922,-0.132,0.236,0.000,1,1,1,1,0.000,0.000,0.034,0.023,0.014,0.015,0.005,0.005,0.034,0.015,0.000,0
20260703_205201,case01_boxes_2layer,6,62.2,1.000,37.443,320.389,-1.423,749.647,-10.590,0.001,-1.990,38.790,0.117,0.001,-0.529,-0.025,-0.541,0.002,0.113,0.006,-99.728,0.058,-0.001,-2.583,-0.001,-0.046,0.000,-0.001,-0.015,0.000,-4.178,-0.133,0.236,0.000,1,1,1,1,0.000,0.000,0.034,0.023,0.016,0.017,0.005,0.005,0.034,0.017,0.000,0
20260703_205201,case01_boxes_2layer,6,62.2,1.000,37.547,319.288,-1.423,749.438,-10.577,0.001,-2.044,38.783,0.122,0.001,-0.539,-0.026,-0.552,0.002,0.119,0.006,-100.005,0.064,-0.001,-2.769,-0.001,-0.047,0.000,-0.001,-0.014,0.000,-4.222,-0.142,0.236,0.000,1,1,1,1,0.000,0.000,0.034,0.023,0.015,0.017,0.006,0.006,0.034,0.017,0.000,0
20260703_205201,case01_boxes_2layer,6,62.2,1.000,37.655,318.146,-1.423,749.213,-10.563,0.001,-2.105,38.775,0.142,0.001,-0.612,-0.030,-0.628,0.002,0.126,0.006,-100.303,0.071,-0.001,-2.980,-0.001,-0.049,0.000,-0.001,-0.016,0.000,-4.342,-0.146,0.236,0.000,1,1,1,1,0.000,0.000,0.034,0.023,0.016,0.017,0.006,0.006,0.034,0.017,0.000,0
20260703_205201,case01_boxes_2layer,6,62.2,1.000,37.763,317.006,-1.423,748.983,-10.548,0.001,-2.168,38.767,0.151,0.001,-0.632,-0.032,-0.650,0.002,0.134,0.006,-100.611,0.076,-0.001,-3.080,-0.001,-0.051,0.000,-0.001,-0.017,0.000,-4.467,-0.150,0.236,0.000,1,1,1,1,0.000,0.000,0.034,0.023,0.016,0.017,0.006,0.006,0.034,0.017,0.000,0
20260703_205201,case01_boxes_2layer,6,62.2,1.000,37.871,315.869,-1.422,748.746,-10.534,0.001,-2.228,38.760,0.145,0.000,-0.599,-0.029,-0.616,0.002,0.142,0.006,-100.926,0.076,0.000,-3.152,-0.001,-0.051,0.000,0.001,-0.007,0.000,-4.398,-0.148,0.236,0.000,1,1,1,1,0.000,0.000,0.034,0.023,0.014,0.015,0.006,0.006,0.034,0.015,0.000,0
20260703_205201,case01_boxes_2layer,6,62.2,1.000,37.971,314.816,-1.422,748.520,-10.519,0.001,-2.286,38.753,0.144,0.000,-0.578,-0.029,-0.595,0.001,0.148,0.006,-101.223,0.067,0.000,-2.963,-0.001,-0.052,0.000,0.000,-0.011,0.000,-4.715,-0.151,0.236,0.000,1,1,1,1,0.000,0.000,0.034,0.023,0.018,0.019,0.006,0.006,0.034,0.019,0.000,0
20260703_205201,case01_boxes_2layer,6,62.2,1.000,38.083,313.640,-1.422,748.261,-10.502,0.001,-2.353,38.744,0.174,0.000,-0.674,-0.036,-0.696,0.002,0.156,0.006,-101.563,0.076,0.000,-3.401,-0.001,-0.054,0.000,-0.001,-0.017,0.000,-4.922,-0.158,0.236,0.000,1,1,1,1,0.000,0.000,0.034,0.023,0.019,0.021,0.007,0.006,0.034,0.021,0.000,0
20260703_205201,case01_boxes_2layer,6,62.2,1.000,38.186,312.550,-1.422,748.013,-10.485,0.001,-2.417,38.735,0.172,0.000,-0.642,-0.036,-0.663,0.002,0.163,0.006,-101.889,0.075,0.000,-3.265,-0.001,-0.056,0.000,-0.001,-0.018,0.000,-5.055,-0.162,0.236,0.000,1,1,1,1,0.000,0.000,0.034,0.023,0.019,0.021,0.007,0.007,0.034,0.021,0.000,0
20260703_205201,case01_boxes_2layer,6,62.2,1.000,38.291,311.457,-1.422,747.757,-10.464,0.001,-2.491,38.724,0.204,0.000,-0.738,-0.043,-0.764,0.003,0.171,0.006,-102.230,0.081,-0.001,-3.404,-0.001,-0.058,0.000,-0.001,-0.023,0.000,-5.291,-0.170,0.236,0.000,1,1,1,1,0.000,0.000,0.034,0.023,0.020,0.022,0.007,0.007,0.034,0.022,0.000,0
20260703_205201,case01_boxes_2layer,6,62.2,1.000,38.398,310.331,-1.422,747.485,-10.445,0.001,-2.560,38.714,0.197,0.001,-0.691,-0.041,-0.717,0.003,0.181,0.006,-102.595,0.092,-0.001,-3.652,-0.002,-0.060,0.000,-0.001,-0.021,0.000,-5.445,-0.183,0.236,0.000,1,1,1,1,0.000,0.000,0.034,0.023,0.020,0.022,0.007,0.007,0.034,0.022,0.000,0
20260703_205201,case01_boxes_2layer,6,62.2,1.000,38.502,309.248,-1.422,747.215,-10.421,0.001,-2.640,38.701,0.233,0.001,-0.793,-0.050,-0.825,0.004,0.190,0.006,-102.962,0.096,-0.002,-3.666,-0.002,-0.063,0.000,-0.001,-0.026,0.000,-5.699,-0.183,0.236,0.000,1,1,1,1,0.000,0.000,0.034,0.023,0.022,0.023,0.008,0.007,0.034,0.023,0.000,0
20260703_205201,case01_boxes_2layer,6,62.2,1.000,38.611,308.121,-1.422,746.926,-10.396,0.001,-2.722,38.688,0.249,0.001,-0.819,-0.053,-0.854,0.004,0.201,0.006,-103.359,0.109,-0.002,-3.973,-0.002,-0.066,0.000,-0.001,-0.026,0.000,-5.971,-0.192,0.236,0.000,1,1,1,1,0.000,0.000,0.034,0.023,0.023,0.025,0.008,0.008,0.034,0.025,0.000,0
20260703_205201,case01_boxes_2layer,6,62.2,1.000,38.715,307.040,-1.422,746.638,-10.373,0.001,-2.796,38.676,0.232,0.001,-0.745,-0.048,-0.779,0.004,0.212,0.005,-103.756,0.112,-0.002,-3.968,-0.002,-0.067,0.000,-0.001,-0.020,0.000,-5.882,-0.189,0.236,0.000,1,1,1,1,0.000,0.000,0.034,0.023,0.019,0.021,0.008,0.008,0.034,0.021,0.000,0
20260703_205201,case01_boxes_2layer,6,62.2,1.000,38.820,305.952,-1.422,746.341,-10.350,0.001,-2.870,38.665,0.232,0.001,-0.735,-0.046,-0.769,0.004,0.224,0.005,-104.165,0.112,-0.001,-4.096,-0.002,-0.069,0.000,0.000,-0.014,0.000,-6.094,-0.196,0.236,0.000,1,1,1,1,0.000,0.000,0.034,0.023,0.021,0.024,0.008,0.008,0.034,0.024,0.000,0
20260703_205201,case01_boxes_2layer,6,62.2,1.000,38.927,304.845,-1.421,746.029,-10.321,0.001,-2.957,38.651,0.287,0.000,-0.872,-0.058,-0.916,0.004,0.235,0.005,-104.594,0.115,0.000,-4.291,-0.002,-0.071,0.000,-0.001,-0.024,0.000,-6.450,-0.208,0.236,0.000,1,1,1,1,0.000,0.000,0.034,0.023,0.024,0.027,0.009,0.009,0.034,0.027,0.000,0
20260703_205201,case01_boxes_2layer,6,62.2,1.000,39.030,303.777,-1.421,745.718,-10.290,0.001,-3.049,38.635,0.316,0.000,-0.923,-0.066,-0.973,0.005,0.247,0.005,-105.025,0.119,-0.001,-4.310,-0.002,-0.074,-0.001,-0.001,-0.029,-0.001,-6.565,-0.221,0.236,0.000,1,1,1,1,0.000,0.000,0.034,0.023,0.023,0.025,0.009,0.009,0.034,0.025,0.000,0
20260703_205201,case01_boxes_2layer,6,62.2,1.000,39.135,302.705,-1.421,745.395,-10.258,0.001,-3.137,38.618,0.313,0.001,-0.881,-0.067,-0.933,0.005,0.260,0.005,-105.477,0.129,-0.001,-4.517,-0.002,-0.077,-0.001,-0.002,-0.031,-0.001,-6.861,-0.230,0.236,0.000,1,1,1,1,0.000,0.000,0.034,0.023,0.024,0.027,0.009,0.009,0.034,0.027,0.000,0
20260703_205201,case01_boxes_2layer,6,62.2,1.000,39.299,301.022,-1.421,744.867,-10.203,0.002,-3.285,38.589,0.550,0.002,-1.481,-0.114,-1.575,0.010,0.282,0.005,-106.231,0.226,-0.002,-7.535,-0.002,-0.083,-0.001,-0.003,-0.054,-0.001,-7.310,-0.245,0.236,0.000,1,1,1,1,0.000,0.000,0.034,0.023,0.025,0.028,0.010,0.010,0.034,0.028,0.000,0
20260703_205201,case01_boxes_2layer,6,62.2,1.000,39.407,299.929,-1.421,744.508,-10.163,0.002,-3.390,38.568,0.406,0.002,-1.049,-0.086,-1.122,0.007,0.299,0.005,-106.751,0.163,-0.002,-5.202,-0.003,-0.086,-0.001,-0.001,-0.035,-0.001,-7.481,-0.251,0.237,0.000,1,1,1,1,0.000,0.000,0.034,0.023,0.023,0.027,0.010,0.010,0.034,0.027,0.000,0
20260703_205201,case01_boxes_2layer,6,62.2,1.000,39.507,298.912,-1.420,744.163,-10.126,0.002,-3.484,38.550,0.370,0.001,-0.937,-0.075,-1.005,0.007,0.314,0.005,-107.252,0.155,-0.002,-5.011,-0.003,-0.088,-0.001,0.000,-0.023,0.000,-7.856,-0.254,0.237,0.000,1,1,1,1,0.000,0.000,0.034,0.023,0.027,0.031,0.011,0.010,0.034,0.031,0.000,0
20260703_205201,case01_boxes_2layer,6,62.2,1.000,39.611,297.864,-1.420,743.796,-10.080,0.002,-3.596,38.526,0.461,0.001,-1.117,-0.098,-1.205,0.008,0.331,0.004,-107.787,0.164,-0.001,-5.352,-0.003,-0.092,-0.001,-0.001,-0.037,-0.001,-8.124,-0.273,0.237,0.000,1,1,1,1,0.000,0.000,0.034,0.023,0.027,0.031,0.011,0.011,0.034,0.031,0.000,0
20260703_205201,case01_boxes_2layer,6,62.2,1.000,39.719,296.778,-1.420,743.402,-10.034,0.002,-3.702,38.502,0.459,0.001,-1.068,-0.099,-1.159,0.008,0.349,0.004,-108.369,0.183,-0.002,-5.817,-0.003,-0.096,-0.001,-0.002,-0.039,-0.001,-8.589,-0.288,0.237,0.000,1,1,1,1,0.000,0.000,0.034,0.023,0.030,0.034,0.012,0.011,0.034,0.034,0.000,0
20260703_205201,case01_boxes_2layer,6,62.2,1.000,39.827,295.697,-1.420,742.995,-9.978,0.002,-3.826,38.472,0.556,0.001,-1.239,-0.122,-1.352,0.010,0.369,0.004,-108.979,0.197,-0.002,-6.100,-0.003,-0.101,-0.001,-0.002,-0.049,-0.001,-9.253,-0.299,0.238,0.000,1,1,1,1,0.000,0.000,0.034,0.023,0.035,0.040,0.012,0.012,0.034,0.040,0.000,0
20260703_205201,case01_boxes_2layer,6,62.2,1.000,39.930,294.665,-1.420,742.592,-9.917,0.002,-3.957,38.437,0.614,0.002,-1.308,-0.140,-1.438,0.011,0.389,0.004,-109.595,0.208,-0.003,-6.160,-0.003,-0.107,-0.001,-0.003,-0.056,-0.002,-9.604,-0.322,0.237,0.000,1,1,1,1,0.000,0.000,0.033,0.023,0.034,0.039,0.013,0.012,0.033,0.039,0.000,0
