run_id,case_name,cargo_count,total_mass_kg,secured_frac,Time,PosX,PosY,PosZ,VelX,VelY,VelZ,SpeedKmh,AccX,AccY,AccZ,LongAcc,LatAcc,VertAcc,Roll,Pitch,Yaw,RollRate,PitchRate,YawRate,AngVelX,AngVelY,AngVelZ,AngAccX,AngAccY,AngAccZ,SteerAngle,TargetSteer,Throttle,Brake,FL_Grounded,FR_Grounded,RL_Grounded,RR_Grounded,FL_ForwardSlip,FR_ForwardSlip,RL_ForwardSlip,RR_ForwardSlip,FL_SideSlip,FR_SideSlip,RL_SideSlip,RR_SideSlip,MaxForwardSlip,MaxSideSlip,RolloverRisk,IsRollover
20260703_203136,case01_baseline_boxes,6,294.5,1.000,0.635,679.395,-1.503,736.112,-0.146,0.448,0.014,1.696,-1.619,0.957,0.080,1.618,0.080,0.958,-0.006,0.055,-89.997,0.150,0.370,0.039,-0.003,0.002,0.006,0.003,0.022,-0.036,12.800,0.380,1.000,0.000,1,1,1,1,-0.004,-0.002,0.737,-1.083,-0.009,-0.008,-0.001,-0.001,1.083,0.009,0.000,0
20260703_203136,case01_baseline_boxes,6,294.5,1.000,0.742,679.368,-1.457,736.115,-0.372,0.386,0.036,1.935,-2.263,-0.615,0.225,2.264,0.224,-0.611,0.015,0.088,-89.969,0.216,0.334,0.278,-0.004,0.007,0.005,-0.011,0.045,-0.014,14.442,0.384,1.000,0.000,1,1,1,1,-0.006,-0.003,0.451,-1.351,-0.011,-0.006,-0.002,-0.002,1.351,0.011,0.000,0
20260703_203136,case01_baseline_boxes,6,294.5,1.000,0.850,679.317,-1.423,736.120,-0.593,0.228,0.059,2.297,-2.212,-1.586,0.224,2.216,0.219,-1.582,0.046,0.117,-89.918,0.305,0.286,0.512,-0.006,0.010,0.004,-0.017,0.037,-0.005,14.438,0.384,1.000,0.000,1,1,1,1,-0.004,-0.001,0.181,0.604,-0.010,-0.003,-0.003,-0.003,0.604,0.010,0.000,0
20260703_203136,case01_baseline_boxes,6,294.5,1.000,0.950,679.248,-1.407,736.126,-0.796,0.077,0.079,2.894,-2.031,-1.502,0.202,2.035,0.195,-1.498,0.083,0.140,-89.850,0.373,0.231,0.681,-0.007,0.014,0.003,-0.013,0.032,-0.009,14.245,0.380,1.000,0.000,1,1,1,1,-0.005,-0.003,0.021,0.228,-0.012,-0.003,-0.003,-0.003,0.228,0.012,0.000,0
20260703_203136,case01_baseline_boxes,6,294.5,1.000,1.050,679.159,-1.404,736.135,-0.990,-0.034,0.098,3.582,-1.933,-1.117,0.186,1.937,0.176,-1.112,0.127,0.155,-89.763,0.435,0.154,0.866,-0.008,0.017,0.002,-0.007,0.033,-0.019,13.868,0.371,1.000,0.000,1,1,1,1,-0.005,-0.003,0.097,-0.241,-0.012,-0.003,-0.002,-0.002,0.241,0.012,0.000,0
20260703_203136,case01_baseline_boxes,6,294.5,1.000,1.158,679.042,-1.412,736.146,-1.199,-0.093,0.113,4.349,-2.097,-0.584,0.156,2.100,0.142,-0.579,0.176,0.158,-89.652,0.490,0.026,1.111,-0.008,0.019,-0.001,0.000,0.022,-0.024,13.198,0.354,1.000,0.000,1,1,1,1,-0.004,-0.002,0.134,0.267,-0.010,-0.001,-0.002,-0.002,0.267,0.010,0.000,0
20260703_203136,case01_baseline_boxes,6,294.5,1.000,1.262,678.906,-1.422,736.159,-1.416,-0.103,0.130,5.133,-2.170,-0.101,0.168,2.171,0.150,-0.096,0.221,0.145,-89.529,0.451,-0.132,1.231,-0.007,0.022,-0.003,0.007,0.028,-0.027,12.665,0.341,1.000,0.000,1,1,1,1,-0.004,-0.003,0.123,0.058,-0.010,-0.001,-0.002,-0.002,0.123,0.010,0.000,0
20260703_203136,case01_baseline_boxes,6,294.5,1.000,1.374,678.736,-1.433,736.174,-1.637,-0.078,0.145,5.924,-2.211,0.251,0.148,2.212,0.125,0.255,0.263,0.116,-89.382,0.420,-0.286,1.477,-0.006,0.024,-0.005,0.012,0.021,-0.018,12.006,0.321,1.000,0.000,1,1,1,1,-0.003,-0.001,0.131,0.205,-0.008,0.000,-0.002,-0.002,0.205,0.008,0.000,0
20260703_203136,case01_baseline_boxes,6,294.5,1.000,1.486,678.540,-1.439,736.191,-1.850,-0.041,0.158,6.686,-2.126,0.370,0.131,2.127,0.104,0.372,0.296,0.080,-89.222,0.331,-0.363,1.597,-0.005,0.026,-0.006,0.014,0.018,-0.005,11.324,0.307,1.000,0.000,1,1,1,1,-0.004,-0.003,0.118,-0.111,-0.008,0.000,-0.002,-0.002,0.118,0.008,0.000,0
20260703_203136,case01_baseline_boxes,6,294.5,1.000,1.598,678.320,-1.442,736.209,-2.069,-0.008,0.171,7.474,-2.192,0.323,0.130,2.194,0.096,0.324,0.319,0.045,-89.052,0.236,-0.349,1.702,-0.003,0.027,-0.005,0.014,0.012,0.008,10.591,0.289,1.000,0.000,1,1,1,1,-0.003,-0.001,0.122,0.176,-0.006,0.001,-0.002,-0.002,0.176,0.006,0.000,0
20260703_203136,case01_baseline_boxes,6,294.5,1.000,1.710,678.075,-1.442,736.229,-2.301,0.013,0.184,8.312,-2.323,0.211,0.127,2.325,0.083,0.212,0.334,0.019,-88.876,0.147,-0.262,1.757,-0.002,0.028,-0.003,0.014,0.009,0.019,9.851,0.270,1.000,0.000,1,1,1,1,-0.004,-0.002,0.121,0.091,-0.006,0.000,-0.002,-0.002,0.121,0.006,0.000,0
20260703_203136,case01_baseline_boxes,6,294.5,1.000,1.822,677.807,-1.440,736.250,-2.514,0.019,0.197,9.077,-2.123,0.065,0.139,2.125,0.091,0.065,0.341,0.006,-88.694,0.067,-0.135,1.823,0.000,0.029,-0.001,0.012,0.009,0.020,9.167,0.252,1.000,0.000,1,1,1,1,-0.004,-0.002,0.121,0.089,-0.005,0.001,-0.002,-0.002,0.121,0.005,0.000,0
20260703_203136,case01_baseline_boxes,6,294.5,1.000,1.926,677.536,-1.438,736.272,-2.706,0.018,0.211,9.771,-1.922,-0.014,0.138,1.925,0.088,-0.014,0.341,0.005,-88.520,0.002,-0.009,1.738,0.000,0.030,0.001,0.009,0.008,0.016,8.807,0.243,1.000,0.000,1,1,1,1,-0.004,-0.002,0.122,0.088,-0.005,0.000,-0.002,-0.002,0.122,0.005,0.000,0
20260703_203136,case01_baseline_boxes,6,294.5,1.000,2.038,677.221,-1.436,736.296,-2.917,0.013,0.226,10.533,-2.113,-0.052,0.143,2.116,0.081,-0.052,0.335,0.014,-88.329,-0.055,0.090,1.913,0.001,0.030,0.002,0.009,0.003,0.013,8.194,0.227,1.000,0.000,1,1,1,1,-0.004,-0.002,0.123,0.088,-0.004,0.001,-0.003,-0.003,0.123,0.004,0.000,0
20260703_203136,case01_baseline_boxes,6,294.5,1.000,2.150,676.881,-1.435,736.322,-3.128,0.007,0.241,11.294,-2.108,-0.058,0.151,2.112,0.082,-0.057,0.325,0.029,-88.136,-0.106,0.151,1.931,0.002,0.030,0.003,0.007,0.002,0.006,7.597,0.212,1.000,0.000,1,1,1,1,-0.004,-0.002,0.124,0.088,-0.003,0.002,-0.003,-0.003,0.124,0.003,0.000,0
20260703_203136,case01_baseline_boxes,6,294.5,1.000,2.250,676.557,-1.435,736.347,-3.338,0.002,0.256,12.054,-2.104,-0.045,0.157,2.109,0.082,-0.043,0.312,0.044,-87.962,-0.132,0.149,1.735,0.003,0.030,0.002,0.006,0.000,-0.001,7.038,0.197,1.000,0.000,1,1,1,1,-0.003,-0.002,0.125,0.088,-0.002,0.002,-0.003,-0.003,0.125,0.003,0.000,0
20260703_203136,case01_baseline_boxes,6,294.5,1.000,2.354,676.201,-1.434,736.374,-3.529,0.000,0.271,12.742,-1.907,-0.026,0.148,1.912,0.074,-0.024,0.295,0.057,-87.784,-0.166,0.139,1.786,0.003,0.030,0.002,0.004,-0.002,-0.005,6.545,0.184,1.000,0.000,1,1,1,1,-0.003,-0.002,0.125,0.087,-0.001,0.003,-0.003,-0.003,0.125,0.003,0.000,0
20260703_203136,case01_baseline_boxes,6,294.5,1.000,2.470,675.780,-1.435,736.407,-3.738,-0.002,0.288,13.497,-2.091,-0.016,0.169,2.096,0.081,-0.014,0.274,0.069,-87.586,-0.214,0.113,1.977,0.003,0.030,0.001,0.003,-0.003,-0.008,6.187,0.171,1.000,0.000,1,1,1,1,-0.003,-0.002,0.126,0.087,-0.002,0.002,-0.003,-0.003,0.126,0.003,0.000,0
20260703_203136,case01_baseline_boxes,6,294.5,1.000,2.570,675.395,-1.435,736.437,-3.928,-0.003,0.303,14.181,-1.894,-0.009,0.151,1.899,0.065,-0.007,0.254,0.074,-87.418,-0.201,0.053,1.679,0.004,0.029,0.000,0.002,-0.006,-0.007,5.613,0.159,1.000,0.000,1,1,1,1,-0.003,-0.002,0.126,0.087,0.001,0.003,-0.003,-0.003,0.126,0.003,0.000,0
20260703_203136,case01_baseline_boxes,6,294.5,1.000,2.678,674.958,-1.435,736.470,-4.135,-0.003,0.319,14.930,-2.075,-0.007,0.154,2.080,0.054,-0.005,0.231,0.075,-87.242,-0.226,0.014,1.755,0.004,0.028,0.000,0.001,-0.011,-0.007,5.198,0.142,1.000,0.000,1,1,1,1,-0.003,-0.002,0.126,0.087,0.000,0.002,-0.003,-0.003,0.126,0.003,0.000,0
20260703_203136,case01_baseline_boxes,6,294.5,1.000,2.782,674.518,-1.436,736.504,-4.341,-0.004,0.336,15.674,-2.060,-0.006,0.177,2.066,0.072,-0.004,0.209,0.073,-87.079,-0.219,-0.021,1.635,0.004,0.027,-0.001,0.000,-0.008,-0.005,4.646,0.133,1.000,0.000,1,1,1,1,-0.003,-0.002,0.126,0.087,0.002,0.004,-0.003,-0.003,0.126,0.004,0.000,0
20260703_203136,case01_baseline_boxes,6,294.5,1.000,2.883,674.073,-1.436,736.539,-4.527,-0.004,0.354,16.347,-1.860,-0.004,0.177,1.867,0.077,-0.002,0.188,0.069,-86.925,-0.209,-0.040,1.544,0.004,0.027,-0.001,-0.001,-0.006,-0.002,4.328,0.124,1.000,0.000,1,1,1,1,-0.003,-0.002,0.126,0.086,0.002,0.004,-0.003,-0.004,0.126,0.004,0.000,0
20260703_203136,case01_baseline_boxes,6,294.5,1.000,2.986,673.595,-1.436,736.577,-4.712,-0.005,0.372,17.016,-1.850,-0.001,0.179,1.857,0.075,0.000,0.168,0.065,-86.770,-0.206,-0.049,1.550,0.003,0.026,-0.001,-0.002,-0.007,0.000,4.028,0.116,1.000,0.000,1,1,1,1,-0.003,-0.002,0.125,0.086,0.002,0.003,-0.004,-0.004,0.125,0.004,0.000,0
20260703_203136,case01_baseline_boxes,6,294.5,1.000,3.090,673.094,-1.437,736.616,-4.914,-0.004,0.392,17.748,-2.023,0.003,0.202,2.032,0.083,0.005,0.148,0.060,-86.618,-0.192,-0.047,1.513,0.003,0.025,-0.001,-0.003,-0.009,0.001,3.735,0.108,1.000,0.000,1,1,1,1,-0.003,-0.002,0.125,0.086,0.001,0.003,-0.004,-0.004,0.125,0.004,0.000,0
20260703_203136,case01_baseline_boxes,6,294.5,1.000,3.190,672.593,-1.437,736.657,-5.067,-0.002,0.409,18.300,-1.525,0.024,0.168,1.533,0.074,0.025,0.132,0.056,-86.477,-0.167,-0.037,1.412,0.003,0.025,-0.001,-0.003,-0.003,-0.001,3.460,0.101,1.000,0.000,1,1,1,1,-0.010,-0.036,0.039,-0.594,0.001,0.002,-0.003,-0.003,0.594,0.003,0.000,0
20260703_203136,case01_baseline_boxes,6,294.5,1.000,3.294,672.058,-1.437,736.700,-5.237,-0.002,0.427,18.915,-1.701,0.000,0.176,1.709,0.067,0.002,0.117,0.053,-86.336,-0.151,-0.030,1.409,0.002,0.024,-0.001,-0.004,-0.010,0.002,3.210,0.094,1.000,0.000,1,1,1,1,-0.013,-0.535,-0.070,-0.134,0.001,0.002,-0.003,-0.003,0.535,0.003,0.000,0
20260703_203136,case01_baseline_boxes,6,294.5,1.000,3.402,671.478,-1.438,736.748,-5.464,-0.002,0.451,19.736,-2.268,0.003,0.241,2.279,0.090,0.004,0.103,0.052,-86.195,-0.131,-0.015,1.414,0.002,0.023,0.000,-0.004,-0.005,0.006,2.814,0.082,1.000,0.000,1,1,1,1,0.001,0.287,0.308,-0.461,0.002,0.003,-0.003,-0.003,0.461,0.003,0.000,0
20260703_203136,case01_baseline_boxes,6,294.5,1.000,3.510,670.875,-1.438,736.798,-5.618,-0.001,0.467,20.294,-1.542,0.006,0.166,1.550,0.060,0.007,0.093,0.052,-86.060,-0.102,0.004,1.346,0.001,0.022,0.000,-0.005,-0.011,-0.001,2.585,0.076,0.977,0.000,1,1,1,1,-0.016,-0.484,-0.056,-0.288,0.002,0.002,-0.003,-0.003,0.484,0.003,0.000,0
20260703_203136,case01_baseline_boxes,6,294.5,1.000,3.614,670.280,-1.438,736.848,-5.819,0.000,0.488,21.021,-2.007,0.007,0.209,2.017,0.066,0.009,0.087,0.053,-85.937,-0.067,0.010,1.231,0.001,0.020,0.000,-0.004,-0.018,0.004,2.383,0.070,0.958,0.000,1,1,1,1,-0.002,-0.427,-0.035,0.541,0.003,0.004,-0.004,-0.004,0.541,0.004,0.000,0
20260703_203136,case01_baseline_boxes,6,294.5,1.000,3.714,669.687,-1.438,736.898,-6.009,0.000,0.509,21.710,-1.905,0.006,0.202,1.915,0.063,0.008,0.083,0.055,-85.825,-0.039,0.014,1.122,0.000,0.018,0.000,-0.004,-0.019,0.002,2.082,0.062,0.931,0.000,1,1,1,1,-0.014,-0.376,-0.046,0.308,0.003,0.004,-0.004,-0.004,0.376,0.004,0.000,0
20260703_203136,case01_baseline_boxes,6,294.5,1.000,3.822,669.030,-1.438,736.954,-6.204,0.001,0.530,22.414,-1.944,0.005,0.218,1.955,0.072,0.007,0.081,0.056,-85.711,-0.013,0.012,1.137,0.000,0.018,0.000,-0.005,-0.008,0.001,1.808,0.057,0.915,0.000,1,1,1,1,0.011,0.361,0.250,0.545,0.005,0.006,-0.004,-0.004,0.545,0.006,0.000,0
20260703_203136,case01_baseline_boxes,6,294.5,1.000,3.922,668.404,-1.438,737.007,-6.384,0.001,0.548,23.066,-1.801,0.002,0.180,1.809,0.041,0.004,0.083,0.056,-85.614,0.013,0.007,0.972,0.000,0.015,0.000,-0.004,-0.022,0.001,1.566,0.047,0.888,0.000,1,1,1,1,0.000,0.346,0.223,0.249,0.004,0.005,-0.004,-0.004,0.346,0.005,0.000,0
20260703_203136,case01_baseline_boxes,6,294.5,1.000,4.030,667.711,-1.438,737.067,-6.495,0.001,0.562,23.468,-1.112,0.000,0.133,1.119,0.046,0.001,0.087,0.057,-85.517,0.040,0.002,0.963,-0.001,0.015,0.000,-0.004,0.000,-0.004,1.449,0.043,0.863,0.000,1,1,1,1,0.001,0.337,0.219,-0.192,0.003,0.003,-0.003,-0.003,0.337,0.003,0.000,0
20260703_203136,case01_baseline_boxes,6,294.5,1.000,4.130,667.052,-1.438,737.124,-6.613,0.001,0.576,23.897,-1.182,-0.001,0.141,1.190,0.047,0.000,0.092,0.056,-85.435,0.059,-0.004,0.825,-0.001,0.015,0.000,-0.004,-0.006,-0.004,1.257,0.038,0.834,0.000,1,1,1,1,-0.011,-0.332,-0.004,-0.243,0.002,0.003,-0.003,-0.003,0.332,0.003,0.000,0
20260703_203136,case01_baseline_boxes,6,294.5,1.000,4.238,666.326,-1.437,737.187,-6.791,0.001,0.595,24.541,-1.780,-0.001,0.197,1.790,0.052,0.001,0.101,0.055,-85.352,0.081,-0.012,0.834,-0.001,0.013,0.000,-0.002,-0.019,0.003,1.164,0.035,0.816,0.000,1,1,1,1,-0.010,-0.321,-0.002,0.160,0.002,0.003,-0.003,-0.003,0.321,0.003,0.000,0
20260703_203136,case01_baseline_boxes,6,294.5,1.000,4.346,665.585,-1.437,737.252,-6.953,0.001,0.614,25.129,-1.623,-0.001,0.191,1.633,0.056,0.000,0.110,0.054,-85.274,0.097,-0.016,0.772,-0.002,0.012,0.000,-0.002,-0.008,0.001,1.009,0.031,0.798,0.000,1,1,1,1,0.000,0.304,0.177,-0.092,0.003,0.003,-0.003,-0.003,0.304,0.003,0.000,0
20260703_203136,case01_baseline_boxes,6,294.5,1.000,4.446,664.883,-1.437,737.315,-7.089,0.001,0.630,25.622,-1.359,0.000,0.159,1.367,0.045,0.001,0.120,0.052,-85.208,0.102,-0.017,0.665,-0.002,0.011,0.000,-0.001,-0.010,0.000,0.920,0.026,0.779,0.000,1,1,1,1,0.000,0.294,0.164,-0.027,0.003,0.003,-0.003,-0.003,0.294,0.003,0.000,0
20260703_203136,case01_baseline_boxes,6,294.5,1.000,4.558,664.083,-1.437,737.386,-7.198,0.001,0.643,26.016,-1.087,0.000,0.131,1.095,0.038,0.001,0.133,0.050,-85.139,0.121,-0.020,0.688,-0.002,0.011,0.000,-0.001,-0.002,-0.002,0.782,0.024,0.755,0.000,1,1,1,1,-0.006,-0.282,0.061,-0.021,0.002,0.002,-0.003,-0.003,0.282,0.003,0.000,0
20260703_203136,case01_baseline_boxes,6,294.5,1.000,4.670,663.267,-1.437,737.459,-7.370,0.001,0.663,26.638,-1.719,0.002,0.191,1.729,0.043,0.003,0.145,0.048,-85.076,0.124,-0.017,0.627,-0.002,0.009,0.000,0.000,-0.018,0.004,0.663,0.020,0.740,0.000,1,1,1,1,0.001,0.268,0.141,0.104,0.003,0.003,-0.003,-0.003,0.268,0.003,0.000,0
20260703_203136,case01_baseline_boxes,6,294.5,1.000,4.774,662.493,-1.437,737.529,-7.447,0.001,0.672,26.920,-0.777,0.001,0.098,0.782,0.030,0.001,0.157,0.047,-85.022,0.116,-0.015,0.540,-0.002,0.009,0.000,0.000,0.004,-0.004,0.552,0.017,0.716,0.000,1,1,1,1,-0.007,-0.258,0.043,-0.157,0.002,0.003,-0.002,-0.002,0.258,0.003,0.000,0
20260703_203136,case01_baseline_boxes,6,294.5,1.000,4.886,661.649,-1.437,737.605,-7.631,0.001,0.692,27.584,-1.834,0.002,0.197,1.844,0.035,0.003,0.169,0.045,-84.970,0.121,-0.013,0.526,-0.002,0.007,0.000,0.002,-0.024,0.006,0.455,0.014,0.706,0.000,1,1,1,1,0.004,0.247,0.134,0.361,0.004,0.004,-0.003,-0.003,0.361,0.004,0.000,0
20260703_203136,case01_baseline_boxes,6,294.5,1.000,4.998,660.792,-1.437,737.683,-7.702,0.001,0.701,27.841,-0.709,0.000,0.088,0.714,0.025,0.001,0.180,0.044,-84.922,0.113,-0.010,0.477,-0.002,0.007,0.000,0.001,0.005,-0.004,0.397,0.011,0.682,0.000,1,1,1,1,-0.007,-0.233,0.046,-0.052,0.002,0.002,-0.002,-0.002,0.233,0.002,0.000,0
20260703_203136,case01_baseline_boxes,6,294.5,1.000,5.110,659.923,-1.437,737.762,-7.858,0.001,0.717,28.405,-1.559,0.000,0.166,1.568,0.026,0.002,0.190,0.044,-84.880,0.102,-0.005,0.424,-0.001,0.006,0.000,0.002,-0.018,0.004,0.317,0.010,0.673,0.000,1,1,1,1,0.004,0.216,0.118,0.409,0.004,0.004,-0.003,-0.003,0.409,0.004,0.000,0
20260703_203136,case01_baseline_boxes,6,294.5,1.000,5.214,659.099,-1.437,737.837,-7.908,0.001,0.724,28.589,-0.508,-0.001,0.065,0.511,0.019,-0.001,0.199,0.043,-84.844,0.085,-0.005,0.361,-0.001,0.007,0.000,0.001,0.010,-0.005,0.248,0.008,0.648,0.000,1,1,1,1,-0.007,-0.199,0.054,-0.296,0.002,0.002,-0.002,-0.002,0.296,0.002,0.000,0
20260703_203136,case01_baseline_boxes,6,294.5,1.000,5.322,658.238,-1.437,737.916,-8.077,0.001,0.742,29.200,-1.686,-0.001,0.176,1.695,0.023,0.000,0.206,0.043,-84.810,0.075,-0.004,0.336,-0.001,0.004,0.000,0.003,-0.023,0.005,0.192,0.006,0.639,0.000,1,1,1,1,0.002,0.178,0.107,0.256,0.003,0.003,-0.003,-0.003,0.256,0.003,0.000,0
20260703_203136,case01_baseline_boxes,6,294.5,1.000,5.434,657.332,-1.437,737.999,-8.133,0.001,0.748,29.404,-0.564,-0.002,0.067,0.567,0.016,-0.002,0.212,0.043,-84.779,0.062,-0.003,0.312,-0.001,0.005,0.000,0.002,0.007,-0.004,0.143,0.004,0.619,0.000,1,1,1,1,-0.006,-0.154,0.056,-0.126,0.002,0.002,-0.002,-0.002,0.154,0.002,0.000,0
20260703_203136,case01_baseline_boxes,6,294.5,1.000,5.538,656.479,-1.437,738.078,-8.212,0.000,0.757,29.690,-0.791,-0.002,0.088,0.796,0.015,-0.002,0.217,0.042,-84.753,0.044,-0.004,0.263,-0.001,0.005,0.000,0.002,-0.001,-0.001,0.106,0.003,0.605,0.000,1,1,1,1,-0.006,-0.120,0.058,-0.281,0.002,0.002,-0.002,-0.002,0.281,0.002,0.000,0
20260703_203136,case01_baseline_boxes,6,294.5,1.000,5.642,655.615,-1.436,738.158,-8.359,0.000,0.772,30.219,-1.462,-0.002,0.152,1.469,0.017,-0.001,0.220,0.042,-84.729,0.030,-0.005,0.236,0.000,0.003,0.000,0.003,-0.018,0.004,0.067,0.002,0.597,0.000,1,1,1,1,0.001,0.065,0.094,0.297,0.003,0.003,-0.002,-0.002,0.297,0.003,0.000,0
20260703_203136,case01_baseline_boxes,6,294.5,1.000,5.754,654.679,-1.436,738.244,-8.413,0.000,0.779,30.418,-0.547,-0.003,0.063,0.551,0.013,-0.002,0.222,0.041,-84.706,0.018,-0.005,0.227,0.000,0.004,0.000,0.002,0.006,-0.004,0.037,0.001,0.580,0.000,1,1,1,1,-0.005,-0.023,0.060,-0.162,0.002,0.002,-0.002,-0.002,0.162,0.002,0.000,0
20260703_203136,case01_baseline_boxes,6,294.5,1.000,5.858,653.797,-1.437,738.326,-8.486,0.000,0.786,30.680,-0.726,-0.002,0.079,0.730,0.011,-0.001,0.222,0.041,-84.687,0.003,-0.006,0.193,0.000,0.004,0.000,0.002,-0.001,-0.001,0.005,0.000,0.567,0.000,1,1,1,1,-0.004,-0.015,0.061,-0.262,0.002,0.002,-0.002,-0.002,0.262,0.002,0.000,0
20260703_203136,case01_baseline_boxes,6,294.5,1.000,5.962,652.909,-1.437,738.408,-8.612,0.000,0.800,31.137,-1.263,-0.001,0.132,1.269,0.014,-0.001,0.221,0.040,-84.670,-0.009,-0.007,0.173,0.000,0.002,0.000,0.003,-0.014,0.003,-0.014,-0.001,0.560,0.000,1,1,1,1,0.001,0.013,0.085,0.325,0.003,0.003,-0.002,-0.002,0.325,0.003,0.000,0
20260703_203136,case01_baseline_boxes,6,294.5,1.000,6.074,651.941,-1.437,738.498,-8.658,-0.001,0.805,31.302,-0.454,-0.002,0.055,0.457,0.012,-0.001,0.219,0.039,-84.653,-0.021,-0.007,0.168,0.000,0.003,0.000,0.001,0.007,-0.003,-0.031,-0.001,0.544,0.000,1,1,1,1,-0.004,-0.014,0.058,-0.203,0.002,0.002,-0.002,-0.002,0.203,0.002,0.000,0
20260703_203136,case01_baseline_boxes,6,294.5,1.000,6.178,651.035,-1.437,738.583,-8.727,-0.001,0.813,31.553,-0.694,-0.001,0.077,0.698,0.012,0.000,0.216,0.039,-84.638,-0.029,-0.007,0.145,0.001,0.003,0.000,0.001,-0.001,0.000,-0.042,-0.001,0.533,0.000,1,1,1,1,-0.004,-0.013,0.058,-0.235,0.002,0.002,-0.001,-0.001,0.235,0.002,0.000,0
20260703_203136,case01_baseline_boxes,6,294.5,1.000,6.290,650.050,-1.437,738.674,-8.811,-0.001,0.822,31.856,-0.836,-0.001,0.093,0.841,0.014,0.000,0.212,0.038,-84.624,-0.040,-0.006,0.140,0.001,0.003,0.000,0.001,-0.002,0.000,-0.054,-0.002,0.521,0.000,1,1,1,1,-0.004,-0.012,0.057,-0.228,0.002,0.002,-0.001,-0.001,0.228,0.002,0.000,0
20260703_203136,case01_baseline_boxes,6,294.5,1.000,6.394,649.128,-1.437,738.760,-8.878,-0.001,0.830,32.099,-0.670,0.000,0.076,0.674,0.013,0.000,0.208,0.037,-84.612,-0.042,-0.006,0.123,0.001,0.002,0.000,0.001,-0.002,0.000,-0.064,-0.002,0.511,0.000,1,1,1,1,-0.004,-0.011,0.056,-0.224,0.002,0.002,-0.001,-0.001,0.224,0.002,0.000,0
20260703_203136,case01_baseline_boxes,6,294.5,1.000,6.506,648.128,-1.437,738.854,-8.984,-0.001,0.841,32.486,-1.069,0.000,0.116,1.075,0.014,0.001,0.203,0.037,-84.600,-0.049,-0.006,0.122,0.001,0.001,0.000,0.001,-0.011,0.003,-0.074,-0.002,0.506,0.000,1,1,1,1,0.002,0.010,0.076,0.336,0.003,0.003,-0.002,-0.002,0.336,0.003,0.000,0
20260703_203136,case01_baseline_boxes,6,294.5,1.000,6.618,647.122,-1.437,738.948,-9.016,-0.001,0.845,32.601,-0.318,0.000,0.041,0.320,0.011,0.000,0.198,0.036,-84.589,-0.051,-0.005,0.114,0.001,0.002,0.000,0.000,0.008,-0.003,-0.081,-0.003,0.491,0.000,1,1,1,1,-0.004,-0.010,0.055,-0.226,0.002,0.002,-0.001,-0.001,0.226,0.002,0.000,0
20260703_203136,case01_baseline_boxes,6,294.5,1.000,6.730,646.105,-1.437,739.044,-9.088,-0.001,0.854,32.859,-0.714,0.000,0.082,0.718,0.015,0.001,0.193,0.036,-84.578,-0.052,-0.004,0.103,0.001,0.002,0.000,0.000,-0.001,0.000,-0.089,-0.003,0.481,0.000,1,1,1,1,-0.004,-0.010,0.054,-0.226,0.002,0.002,-0.001,-0.001,0.226,0.002,0.000,0
20260703_203136,case01_baseline_boxes,6,294.5,1.000,6.842,645.082,-1.437,739.140,-9.186,-0.001,0.864,33.217,-0.987,0.001,0.108,0.993,0.014,0.001,0.188,0.035,-84.568,-0.050,-0.005,0.100,0.001,0.001,0.000,0.000,-0.011,0.003,-0.098,-0.003,0.477,0.000,1,1,1,1,0.002,0.009,0.072,0.327,0.003,0.003,-0.002,-0.002,0.327,0.003,0.000,0
20260703_203136,case01_baseline_boxes,6,294.5,1.000,6.942,644.160,-1.437,739.227,-9.241,-0.001,0.871,33.416,-0.550,0.000,0.064,0.553,0.012,0.001,0.183,0.035,-84.560,-0.042,-0.004,0.082,0.001,0.001,0.000,-0.001,-0.001,0.000,-0.100,-0.003,0.469,0.000,1,1,1,1,0.002,0.009,0.070,0.324,0.002,0.002,-0.002,-0.002,0.324,0.002,0.000,0
20260703_203136,case01_baseline_boxes,6,294.5,1.000,7.054,643.124,-1.437,739.325,-9.264,-0.001,0.874,33.499,-0.228,0.000,0.034,0.230,0.012,0.000,0.179,0.035,-84.552,-0.043,-0.003,0.085,0.001,0.002,0.000,-0.001,0.009,-0.003,-0.103,-0.003,0.455,0.000,1,1,1,1,-0.004,-0.009,0.052,-0.225,0.002,0.002,-0.001,-0.001,0.225,0.002,0.000,0
20260703_203136,case01_baseline_boxes,6,294.5,1.000,7.158,642.158,-1.437,739.416,-9.315,-0.001,0.880,33.685,-0.513,0.001,0.060,0.517,0.011,0.001,0.176,0.034,-84.544,-0.034,-0.004,0.076,0.000,0.002,0.000,-0.001,-0.001,0.000,-0.104,-0.003,0.448,0.000,1,1,1,1,-0.004,-0.009,0.051,-0.225,0.002,0.002,-0.001,-0.001,0.225,0.002,0.000,0
20260703_203136,case01_baseline_boxes,6,294.5,1.000,7.258,641.220,-1.437,739.505,-9.365,0.000,0.886,33.865,-0.496,0.001,0.059,0.499,0.011,0.001,0.173,0.034,-84.537,-0.028,-0.003,0.069,0.000,0.002,0.000,-0.001,-0.001,0.000,-0.107,-0.004,0.441,0.000,1,1,1,1,-0.004,-0.009,0.051,-0.225,0.001,0.001,-0.001,-0.001,0.225,0.001,0.000,0
20260703_203136,case01_baseline_boxes,6,294.5,1.000,7.366,640.206,-1.437,739.600,-9.453,0.000,0.896,34.182,-0.877,0.001,0.097,0.882,0.013,0.002,0.170,0.034,-84.530,-0.023,-0.003,0.068,0.000,0.001,0.000,-0.001,-0.010,0.003,-0.110,-0.004,0.438,0.000,1,1,1,1,0.002,0.008,0.066,0.313,0.002,0.002,-0.002,-0.002,0.313,0.002,0.000,0
20260703_203136,case01_baseline_boxes,6,294.5,1.000,7.474,639.186,-1.437,739.697,-9.468,0.000,0.898,34.239,-0.155,0.001,0.025,0.157,0.010,0.001,0.169,0.033,-84.524,-0.018,-0.003,0.066,0.000,0.002,0.000,-0.002,0.009,-0.003,-0.116,-0.004,0.426,0.000,1,1,1,1,-0.003,-0.008,0.049,-0.224,0.001,0.001,-0.001,-0.001,0.224,0.001,0.000,0
20260703_203136,case01_baseline_boxes,6,294.5,1.000,7.574,638.233,-1.437,739.788,-9.513,0.000,0.904,34.400,-0.444,0.001,0.052,0.447,0.010,0.001,0.168,0.033,-84.518,-0.010,-0.003,0.057,0.000,0.001,0.000,-0.001,-0.001,0.000,-0.116,-0.004,0.419,0.000,1,1,1,1,-0.003,-0.008,0.049,-0.224,0.001,0.001,-0.001,-0.001,0.224,0.001,0.000,0
20260703_203136,case01_baseline_boxes,6,294.5,1.000,7.682,637.201,-1.438,739.886,-9.594,0.000,0.913,34.696,-0.818,0.001,0.090,0.823,0.011,0.002,0.167,0.033,-84.512,-0.003,-0.004,0.058,0.000,0.000,0.000,0.000,-0.010,0.003,-0.120,-0.004,0.418,0.000,1,1,1,1,0.002,0.007,0.063,0.306,0.002,0.002,-0.002,-0.002,0.306,0.002,0.000,0
20260703_203136,case01_baseline_boxes,6,294.5,1.000,7.782,636.241,-1.438,739.977,-9.636,0.000,0.917,34.845,-0.412,0.001,0.048,0.414,0.009,0.001,0.168,0.032,-84.507,0.002,-0.003,0.049,0.000,0.000,0.000,-0.001,-0.001,0.000,-0.123,-0.004,0.412,0.000,1,1,1,1,0.002,0.007,0.062,0.303,0.002,0.002,-0.002,-0.002,0.303,0.002,0.000,0
20260703_203136,case01_baseline_boxes,6,294.5,1.000,7.894,635.162,-1.438,740.080,-9.645,0.000,0.919,34.879,-0.094,0.000,0.016,0.095,0.007,0.001,0.168,0.032,-84.502,0.008,-0.003,0.050,0.000,0.001,0.000,-0.001,0.009,-0.003,-0.127,-0.004,0.400,0.000,1,1,1,1,-0.003,-0.007,0.047,-0.222,0.001,0.001,-0.001,-0.001,0.222,0.001,0.000,0
20260703_203136,case01_baseline_boxes,6,294.5,1.000,7.998,634.155,-1.438,740.176,-9.684,0.000,0.923,35.019,-0.385,0.001,0.044,0.387,0.007,0.001,0.170,0.032,-84.498,0.013,-0.003,0.044,0.000,0.001,0.000,-0.001,-0.001,0.000,-0.130,-0.004,0.395,0.000,1,1,1,1,-0.003,-0.007,0.046,-0.221,0.001,0.001,-0.001,-0.001,0.221,0.001,0.000,0
20260703_203136,case01_baseline_boxes,6,294.5,1.000,8.098,633.183,-1.437,740.269,-9.721,0.000,0.928,35.153,-0.372,0.001,0.042,0.374,0.007,0.001,0.171,0.031,-84.494,0.015,-0.002,0.038,0.000,0.001,0.000,-0.001,-0.001,0.000,-0.129,-0.004,0.389,0.000,1,1,1,1,-0.003,-0.007,0.046,-0.220,0.001,0.001,-0.001,-0.001,0.220,0.001,0.000,0
20260703_203136,case01_baseline_boxes,6,294.5,1.000,8.202,632.172,-1.437,740.365,-9.794,0.000,0.936,35.419,-0.733,0.001,0.078,0.737,0.007,0.001,0.173,0.031,-84.491,0.020,-0.002,0.036,0.000,0.000,0.000,0.000,-0.010,0.003,-0.136,-0.005,0.389,0.000,1,1,1,1,0.002,0.006,0.058,0.294,0.002,0.002,-0.001,-0.001,0.294,0.002,0.000,0
20260703_203136,case01_baseline_boxes,6,294.5,1.000,8.302,631.192,-1.437,740.459,-9.828,0.000,0.939,35.543,-0.344,0.000,0.038,0.346,0.005,0.000,0.175,0.031,-84.488,0.021,-0.003,0.031,0.000,0.000,0.000,0.000,-0.001,0.000,-0.136,-0.005,0.384,0.000,1,1,1,1,0.002,0.006,0.058,0.292,0.002,0.002,-0.001,-0.001,0.292,0.002,0.000,0
20260703_203136,case01_baseline_boxes,6,294.5,1.000,8.402,630.206,-1.437,740.553,-9.862,0.000,0.943,35.664,-0.333,0.000,0.036,0.335,0.004,0.000,0.178,0.031,-84.485,0.023,-0.002,0.028,0.000,0.000,0.000,0.000,-0.001,0.000,-0.137,-0.005,0.379,0.000,1,1,1,1,0.002,0.006,0.057,0.289,0.002,0.002,-0.001,-0.001,0.289,0.002,0.000,0
20260703_203136,case01_baseline_boxes,6,294.5,1.000,8.502,629.217,-1.437,740.648,-9.894,0.000,0.946,35.780,-0.321,0.000,0.035,0.323,0.003,0.000,0.180,0.031,-84.482,0.023,-0.002,0.025,0.000,0.000,0.000,0.000,-0.001,0.000,-0.138,-0.005,0.374,0.000,1,1,1,1,0.002,0.006,0.056,0.287,0.002,0.002,-0.001,-0.001,0.287,0.002,0.000,0
20260703_203136,case01_baseline_boxes,6,294.5,1.000,8.610,628.153,-1.437,740.750,-9.925,0.000,0.950,35.893,-0.311,0.000,0.032,0.312,0.002,0.000,0.182,0.030,-84.480,0.026,-0.002,0.021,0.000,0.000,0.000,0.000,-0.001,0.000,-0.156,-0.005,0.370,0.000,1,1,1,1,0.002,0.006,0.056,0.285,0.002,0.002,-0.001,-0.001,0.285,0.002,0.000,0
20260703_203136,case01_baseline_boxes,6,294.5,1.000,8.718,627.082,-1.437,740.852,-9.925,0.000,0.950,35.893,0.000,0.000,0.002,0.001,0.002,0.000,0.185,0.030,-84.478,0.026,-0.003,0.021,0.000,0.001,0.000,0.000,0.009,-0.003,-0.144,-0.005,0.360,0.000,1,1,1,1,-0.003,-0.006,0.043,-0.216,0.001,0.001,-0.001,-0.001,0.216,0.001,0.000,0
20260703_203136,case01_baseline_boxes,6,294.5,1.000,8.818,626.084,-1.437,740.947,-9.954,0.000,0.953,35.998,-0.291,0.000,0.029,0.292,0.001,0.000,0.187,0.030,-84.477,0.023,-0.002,0.015,0.000,0.001,0.000,0.000,-0.001,0.000,-0.161,-0.005,0.356,0.000,1,1,1,1,-0.003,-0.006,0.042,-0.215,0.001,0.001,-0.001,-0.001,0.215,0.001,0.000,0
20260703_203136,case01_baseline_boxes,6,294.5,1.000,8.918,625.085,-1.437,741.043,-9.982,0.000,0.956,36.099,-0.281,0.000,0.028,0.282,0.001,0.000,0.189,0.030,-84.475,0.020,-0.002,0.012,0.000,0.001,0.000,0.000,-0.001,0.000,-0.163,-0.005,0.352,0.000,1,1,1,1,-0.003,-0.006,0.042,-0.214,0.001,0.001,-0.001,-0.001,0.214,0.001,0.000,0
20260703_203136,case01_baseline_boxes,6,294.5,1.000,9.030,623.964,-1.437,741.150,-10.044,0.000,0.962,36.325,-0.622,0.000,0.061,0.625,0.001,0.000,0.192,0.030,-84.475,0.022,-0.001,0.007,0.000,0.000,0.000,0.001,-0.010,0.003,-0.168,-0.005,0.352,0.000,1,1,1,1,0.002,0.006,0.053,0.277,0.002,0.002,-0.001,-0.001,0.277,0.002,0.000,0
20260703_203136,case01_baseline_boxes,6,294.5,1.000,9.142,622.838,-1.437,741.258,-10.075,0.000,0.965,36.437,-0.311,0.000,0.029,0.312,-0.001,0.000,0.193,0.029,-84.474,0.018,-0.002,0.007,0.000,0.000,0.000,0.001,-0.001,0.000,-0.160,-0.005,0.348,0.000,1,1,1,1,0.002,0.005,0.052,0.275,0.002,0.002,-0.001,-0.001,0.275,0.002,0.000,0
20260703_203136,case01_baseline_boxes,6,294.5,1.000,9.250,621.752,-1.437,741.362,-10.100,0.000,0.967,36.527,-0.249,0.000,0.022,0.250,-0.002,0.000,0.195,0.029,-84.474,0.015,-0.001,-0.001,0.000,0.000,0.000,0.000,-0.001,0.000,-0.176,-0.005,0.344,0.000,1,1,1,1,0.002,0.005,0.052,0.273,0.002,0.002,-0.001,-0.001,0.273,0.002,0.000,0
20260703_203136,case01_baseline_boxes,6,294.5,1.000,9.358,620.659,-1.437,741.467,-10.095,0.000,0.966,36.507,0.055,-0.001,-0.008,-0.055,-0.003,-0.001,0.196,0.029,-84.474,0.011,-0.002,0.000,0.000,0.000,0.000,0.000,0.008,-0.003,-0.165,-0.005,0.335,0.000,1,1,1,1,-0.003,-0.006,0.040,-0.211,0.001,0.001,-0.001,-0.001,0.211,0.001,0.000,0
20260703_203136,case01_baseline_boxes,6,294.5,1.000,9.470,619.530,-1.437,741.575,-10.152,0.000,0.971,36.715,-0.574,0.000,0.053,0.576,-0.002,0.000,0.197,0.029,-84.475,0.008,-0.001,-0.008,0.000,-0.001,0.000,0.001,-0.009,0.003,-0.167,-0.006,0.336,0.000,1,1,1,1,0.002,0.005,0.051,0.270,0.002,0.002,-0.001,-0.001,0.270,0.002,0.000,0
20260703_203136,case01_baseline_boxes,6,294.5,1.000,9.574,618.471,-1.437,741.676,-10.145,0.000,0.970,36.689,0.071,-0.001,-0.012,-0.072,-0.005,-0.001,0.197,0.029,-84.476,0.004,-0.002,-0.008,0.000,0.000,0.000,0.000,0.008,-0.003,-0.174,-0.006,0.328,0.000,1,1,1,1,-0.003,-0.006,0.039,-0.209,0.001,0.001,-0.001,-0.001,0.209,0.001,0.000,0
20260703_203136,case01_baseline_boxes,6,294.5,1.000,9.686,617.331,-1.437,741.785,-10.200,0.000,0.975,36.888,-0.553,0.000,0.050,0.555,-0.003,0.000,0.197,0.029,-84.477,0.003,-0.002,-0.013,0.000,-0.001,0.000,0.001,-0.009,0.003,-0.178,-0.006,0.329,0.000,1,1,1,1,0.002,0.005,0.050,0.266,0.002,0.002,-0.001,-0.001,0.266,0.002,0.000,0
20260703_203136,case01_baseline_boxes,6,294.5,1.000,9.798,616.191,-1.437,741.894,-10.192,0.000,0.974,36.857,0.086,-0.001,-0.014,-0.087,-0.006,-0.001,0.197,0.028,-84.478,-0.002,-0.002,-0.016,0.000,0.000,0.000,0.000,0.008,-0.003,-0.180,-0.006,0.321,0.000,1,1,1,1,-0.002,-0.005,0.039,-0.208,0.001,0.001,-0.001,-0.001,0.208,0.001,0.000,0
20260703_203136,case01_baseline_boxes,6,294.5,1.000,9.902,615.127,-1.437,741.996,-10.245,0.000,0.978,37.050,-0.532,0.000,0.048,0.534,-0.004,0.000,0.197,0.028,-84.480,-0.003,-0.002,-0.018,0.000,-0.001,0.000,0.001,-0.009,0.003,-0.184,-0.006,0.323,0.000,1,1,1,1,0.002,0.005,0.049,0.263,0.002,0.002,-0.001,-0.001,0.263,0.002,0.000,0
20260703_203136,case01_baseline_boxes,6,294.5,1.000,10.006,614.062,-1.437,742.097,-10.264,0.000,0.980,37.119,-0.192,0.000,0.013,0.193,-0.005,0.000,0.196,0.028,-84.482,-0.005,-0.001,-0.022,0.000,-0.001,0.000,0.000,0.000,0.000,-0.182,-0.006,0.320,0.000,1,1,1,1,0.002,0.005,0.048,0.262,0.002,0.002,-0.001,-0.001,0.262,0.002,0.000,0
20260703_203136,case01_baseline_boxes,6,294.5,1.000,10.118,612.910,-1.437,742.207,-10.254,0.000,0.978,37.080,0.106,0.000,-0.018,-0.107,-0.008,0.000,0.196,0.028,-84.485,-0.007,-0.002,-0.024,0.000,0.000,0.000,0.000,0.008,-0.003,-0.190,-0.006,0.312,0.000,1,1,1,1,-0.002,-0.005,0.038,-0.206,0.001,0.001,-0.001,-0.001,0.206,0.001,0.000,0
20260703_203136,case01_baseline_boxes,6,294.5,1.000,10.222,611.842,-1.437,742.309,-10.304,0.000,0.982,37.263,-0.506,0.000,0.044,0.507,-0.005,0.000,0.195,0.028,-84.488,-0.009,-0.001,-0.027,0.000,-0.001,0.000,0.001,-0.009,0.003,-0.192,-0.006,0.314,0.000,1,1,1,1,0.002,0.005,0.047,0.259,0.002,0.002,-0.001,-0.001,0.259,0.002,0.000,0
20260703_203136,case01_baseline_boxes,6,294.5,1.000,10.330,610.734,-1.437,742.415,-10.321,0.000,0.984,37.325,-0.172,0.000,0.011,0.172,-0.006,0.000,0.194,0.028,-84.491,-0.010,-0.001,-0.032,0.000,-0.001,0.000,0.000,0.000,0.000,-0.190,-0.006,0.311,0.000,1,1,1,1,0.002,0.005,0.047,0.258,0.002,0.002,-0.001,-0.001,0.258,0.002,0.000,0
20260703_203136,case01_baseline_boxes,6,294.5,1.000,10.430,609.701,-1.437,742.513,-10.338,0.000,0.984,37.385,-0.166,0.000,0.009,0.166,-0.007,0.000,0.193,0.028,-84.494,-0.009,-0.002,-0.031,0.000,-0.001,0.000,0.000,-0.001,0.000,-0.193,-0.006,0.309,0.000,1,1,1,1,0.002,0.005,0.047,0.257,0.002,0.002,-0.001,-0.001,0.257,0.002,0.000,0
20260703_203136,case01_baseline_boxes,6,294.5,1.000,10.542,608.543,-1.437,742.623,-10.357,0.000,0.985,37.454,-0.192,0.000,0.010,0.192,-0.008,0.000,0.192,0.027,-84.498,-0.010,-0.002,-0.036,0.000,-0.001,0.000,0.000,0.000,0.000,-0.201,-0.007,0.306,0.000,1,1,1,1,0.002,0.005,0.046,0.255,0.002,0.002,-0.001,-0.001,0.255,0.002,0.000,0
20260703_203136,case01_baseline_boxes,6,294.5,1.000,10.642,607.507,-1.437,742.722,-10.372,0.000,0.986,37.509,-0.154,0.000,0.007,0.154,-0.007,0.000,0.191,0.027,-84.501,-0.009,-0.001,-0.036,0.000,-0.001,0.000,0.000,0.000,0.000,-0.199,-0.007,0.304,0.000,1,1,1,1,0.002,0.005,0.046,0.254,0.002,0.002,-0.001,-0.001,0.254,0.002,0.000,0
20260703_203136,case01_baseline_boxes,6,294.5,1.000,10.742,606.470,-1.437,742.820,-10.387,0.000,0.987,37.563,-0.149,0.000,0.006,0.149,-0.008,0.000,0.190,0.027,-84.505,-0.008,-0.001,-0.038,0.000,-0.001,0.000,0.000,0.000,0.000,-0.201,-0.007,0.302,0.000,1,1,1,1,0.002,0.005,0.046,0.253,0.002,0.002,-0.001,-0.001,0.253,0.002,0.000,0
20260703_203136,case01_baseline_boxes,6,294.5,1.000,10.850,605.350,-1.437,742.927,-10.373,0.000,0.984,37.510,0.144,0.000,-0.024,-0.146,-0.010,0.000,0.190,0.027,-84.510,-0.008,-0.001,-0.046,0.000,0.000,0.000,-0.001,0.008,-0.003,-0.206,-0.007,0.295,0.000,1,1,1,1,-0.002,-0.005,0.036,-0.201,0.001,0.001,-0.001,-0.001,0.201,0.001,0.000,0
20260703_203136,case01_baseline_boxes,6,294.5,1.000,10.958,604.230,-1.437,743.033,-10.387,0.000,0.985,37.560,-0.139,0.000,0.004,0.139,-0.009,0.000,0.189,0.027,-84.514,-0.007,-0.002,-0.046,0.000,0.000,0.000,0.000,-0.001,0.000,-0.204,-0.007,0.293,0.000,1,1,1,1,-0.002,-0.005,0.036,-0.201,0.001,0.001,-0.001,-0.001,0.201,0.001,0.000,0
20260703_203136,case01_baseline_boxes,6,294.5,1.000,11.058,603.185,-1.437,743.132,-10.400,0.000,0.985,37.609,-0.135,0.000,0.003,0.135,-0.010,0.000,0.188,0.027,-84.519,-0.006,-0.001,-0.047,0.000,0.000,0.000,0.000,-0.001,0.000,-0.226,-0.007,0.291,0.000,1,1,1,1,-0.002,-0.005,0.035,-0.200,0.002,0.002,-0.001,-0.001,0.200,0.002,0.000,0
20260703_203136,case01_baseline_boxes,6,294.5,1.000,11.166,602.059,-1.437,743.238,-10.444,0.000,0.988,37.768,-0.442,0.000,0.033,0.443,-0.009,0.001,0.188,0.027,-84.524,-0.006,0.000,-0.054,0.000,-0.001,0.000,0.000,-0.009,0.003,-0.227,-0.007,0.293,0.000,1,1,1,1,0.002,0.004,0.044,0.249,0.002,0.002,-0.001,-0.001,0.249,0.002,0.000,0
20260703_203136,case01_baseline_boxes,6,294.5,1.000,11.270,600.978,-1.437,743.341,-10.457,0.000,0.989,37.813,-0.124,0.000,0.003,0.124,-0.009,0.000,0.187,0.027,-84.530,-0.004,0.000,-0.054,0.000,-0.001,0.000,0.000,0.000,0.000,-0.225,-0.008,0.292,0.000,1,1,1,1,0.002,0.004,0.044,0.248,0.002,0.002,-0.001,-0.001,0.248,0.002,0.000,0
20260703_203136,case01_baseline_boxes,6,294.5,1.000,11.370,599.933,-1.437,743.439,-10.469,0.000,0.989,37.856,-0.120,0.000,0.001,0.120,-0.011,0.000,0.187,0.027,-84.535,-0.001,-0.001,-0.053,0.000,-0.001,0.000,0.000,0.000,0.000,-0.227,-0.008,0.290,0.000,1,1,1,1,0.002,0.004,0.044,0.247,0.002,0.002,-0.001,-0.001,0.247,0.002,0.000,0
20260703_203136,case01_baseline_boxes,6,294.5,1.000,11.470,598.886,-1.437,743.538,-10.481,0.000,0.989,37.897,-0.116,0.000,-0.001,0.116,-0.012,0.000,0.187,0.027,-84.541,0.002,-0.001,-0.056,0.000,-0.001,0.000,0.000,-0.001,0.000,-0.231,-0.008,0.288,0.000,1,1,1,1,0.002,0.004,0.044,0.246,0.002,0.002,-0.001,-0.001,0.246,0.002,0.000,0
20260703_203136,case01_baseline_boxes,6,294.5,1.000,11.578,597.752,-1.437,743.645,-10.463,0.000,0.986,37.835,0.171,0.000,-0.031,-0.173,-0.014,0.000,0.187,0.026,-84.547,0.000,-0.002,-0.063,0.000,-0.001,0.000,-0.001,0.008,-0.003,-0.234,-0.008,0.282,0.000,1,1,1,1,-0.002,-0.005,0.034,-0.197,0.001,0.001,0.000,0.000,0.197,0.001,0.000,0
20260703_203136,case01_baseline_boxes,6,294.5,1.000,11.682,596.666,-1.437,743.747,-10.505,0.000,0.988,37.984,-0.413,0.000,0.027,0.414,-0.012,0.001,0.187,0.026,-84.553,0.001,-0.001,-0.064,0.000,-0.002,0.000,0.000,-0.009,0.003,-0.235,-0.008,0.285,0.000,1,1,1,1,0.002,0.004,0.043,0.244,0.002,0.002,-0.001,-0.001,0.244,0.002,0.000,0
20260703_203136,case01_baseline_boxes,6,294.5,1.000,11.782,595.614,-1.437,743.846,-10.515,0.000,0.988,38.021,-0.104,0.000,-0.002,0.104,-0.012,0.000,0.188,0.026,-84.560,0.002,-0.001,-0.064,0.000,-0.002,0.000,0.000,0.000,0.000,-0.235,-0.008,0.283,0.000,1,1,1,1,0.002,0.004,0.043,0.243,0.002,0.002,-0.001,-0.001,0.243,0.002,0.000,0
20260703_203136,case01_baseline_boxes,6,294.5,1.000,11.890,594.481,-1.437,743.952,-10.525,0.000,0.988,38.057,-0.101,0.000,-0.003,0.100,-0.013,0.000,0.188,0.026,-84.567,0.004,0.000,-0.074,0.000,-0.002,0.000,0.000,0.000,0.000,-0.232,-0.008,0.282,0.000,1,1,1,1,0.002,0.004,0.043,0.242,0.002,0.002,-0.001,-0.001,0.242,0.002,0.000,0
20260703_203136,case01_baseline_boxes,6,294.5,1.000,11.998,593.343,-1.437,744.059,-10.507,0.000,0.985,37.990,0.184,0.000,-0.033,-0.187,-0.015,0.000,0.188,0.026,-84.574,0.005,-0.001,-0.072,0.000,-0.001,0.000,-0.001,0.008,-0.003,-0.236,-0.008,0.276,0.000,1,1,1,1,-0.002,-0.005,0.034,-0.195,0.001,0.001,0.000,0.000,0.195,0.001,0.000,0
20260703_203136,case01_baseline_boxes,6,294.5,1.000,12.106,592.207,-1.437,744.165,-10.546,0.000,0.987,38.132,-0.394,0.000,0.023,0.395,-0.014,0.001,0.189,0.026,-84.582,0.005,-0.001,-0.077,0.000,-0.002,0.000,0.000,-0.009,0.003,-0.239,-0.008,0.279,0.000,1,1,1,1,0.001,0.004,0.042,0.240,0.002,0.002,-0.001,-0.001,0.240,0.002,0.000,0
20260703_203136,case01_baseline_boxes,6,294.5,1.000,12.206,591.151,-1.437,744.264,-10.555,0.000,0.986,38.164,-0.090,0.000,-0.007,0.089,-0.015,0.000,0.190,0.026,-84.589,0.006,-0.001,-0.074,0.000,-0.002,0.000,0.000,-0.001,0.000,-0.242,-0.008,0.277,0.000,1,1,1,1,0.001,0.004,0.042,0.239,0.002,0.002,-0.001,-0.001,0.239,0.002,0.000,0
20260703_203136,case01_baseline_boxes,6,294.5,1.000,12.310,590.055,-1.437,744.366,-10.536,0.000,0.982,38.094,0.192,0.000,-0.037,-0.195,-0.018,0.000,0.190,0.026,-84.597,0.006,0.000,-0.081,0.000,-0.001,0.000,-0.001,0.007,-0.003,-0.246,-0.008,0.272,0.000,1,1,1,1,-0.002,-0.004,0.033,-0.193,0.001,0.001,0.000,0.000,0.193,0.001,0.000,0
20260703_203136,case01_baseline_boxes,6,294.5,1.000,12.410,588.999,-1.437,744.465,-10.545,0.000,0.982,38.124,-0.085,0.000,-0.008,0.084,-0.016,0.000,0.191,0.026,-84.605,0.005,-0.001,-0.080,0.000,-0.001,0.000,0.000,0.000,0.000,-0.245,-0.008,0.270,0.000,1,1,1,1,-0.002,-0.004,0.033,-0.193,0.001,0.001,0.000,0.000,0.193,0.001,0.000,0
20260703_203136,case01_baseline_boxes,6,294.5,1.000,12.518,587.862,-1.437,744.571,-10.553,0.000,0.981,38.154,-0.082,0.000,-0.009,0.081,-0.017,0.000,0.191,0.026,-84.614,0.007,-0.001,-0.087,0.000,-0.001,0.000,0.000,-0.001,0.000,-0.269,-0.008,0.269,0.000,1,1,1,1,-0.002,-0.004,0.033,-0.192,0.002,0.002,0.000,0.000,0.192,0.002,0.000,0
20260703_203136,case01_baseline_boxes,6,294.5,1.000,12.618,586.803,-1.437,744.669,-10.561,0.000,0.980,38.182,-0.080,0.000,-0.009,0.079,-0.017,0.000,0.192,0.026,-84.623,0.007,-0.001,-0.085,0.000,-0.001,0.000,0.000,0.000,0.000,-0.270,-0.009,0.268,0.000,1,1,1,1,-0.002,-0.004,0.033,-0.192,0.002,0.002,0.000,0.000,0.192,0.002,0.000,0
20260703_203136,case01_baseline_boxes,6,294.5,1.000,12.726,585.663,-1.437,744.774,-10.598,0.000,0.981,38.315,-0.369,0.000,0.016,0.369,-0.019,0.000,0.193,0.026,-84.632,0.006,0.000,-0.096,0.000,-0.002,0.000,0.000,-0.008,0.002,-0.270,-0.009,0.271,0.000,1,1,1,1,0.001,0.004,0.041,0.235,0.002,0.002,-0.001,-0.001,0.235,0.002,0.000,0
20260703_203136,case01_baseline_boxes,6,294.5,1.000,12.826,584.603,-1.437,744.873,-10.605,0.000,0.980,38.341,-0.073,0.000,-0.012,0.072,-0.018,0.000,0.193,0.026,-84.641,0.005,-0.001,-0.091,0.000,-0.002,0.000,0.000,-0.001,0.000,-0.270,-0.010,0.270,0.000,1,1,1,1,0.001,0.004,0.041,0.235,0.002,0.002,-0.001,-0.001,0.235,0.002,0.000,0
20260703_203136,case01_baseline_boxes,6,294.5,1.000,12.926,583.542,-1.437,744.971,-10.612,0.000,0.979,38.366,-0.071,0.000,-0.016,0.069,-0.023,0.000,0.194,0.026,-84.651,0.005,0.000,-0.097,0.000,-0.002,0.000,0.000,-0.001,0.000,-0.295,-0.010,0.269,0.000,1,1,1,1,0.001,0.004,0.041,0.234,0.002,0.002,-0.001,-0.001,0.234,0.002,0.000,0
20260703_203136,case01_baseline_boxes,6,294.5,1.000,13.034,582.398,-1.437,745.076,-10.591,0.000,0.974,38.290,0.207,0.000,-0.047,-0.210,-0.028,0.000,0.194,0.026,-84.662,0.006,-0.001,-0.113,0.000,-0.002,0.000,0.000,0.006,-0.002,-0.296,-0.010,0.264,0.000,1,1,1,1,-0.002,-0.004,0.032,-0.190,0.002,0.002,0.000,0.000,0.190,0.002,0.000,0
20260703_203136,case01_baseline_boxes,6,294.5,1.000,13.138,581.294,-1.437,745.177,-10.598,0.000,0.972,38.313,-0.067,0.000,-0.017,0.065,-0.023,0.000,0.195,0.026,-84.674,0.004,-0.001,-0.115,0.000,-0.002,0.000,0.000,-0.001,0.000,-0.286,-0.010,0.263,0.000,1,1,1,1,-0.002,-0.004,0.032,-0.189,0.001,0.001,0.000,0.000,0.189,0.001,0.000,0
20260703_203136,case01_baseline_boxes,6,294.5,1.000,13.242,580.191,-1.437,745.278,-10.633,0.000,0.973,38.440,-0.352,0.000,0.011,0.351,-0.022,0.000,0.195,0.026,-84.686,0.004,0.000,-0.118,0.000,-0.002,0.000,0.001,-0.008,0.002,-0.283,-0.010,0.266,0.000,1,1,1,1,0.001,0.004,0.040,0.232,0.002,0.002,-0.001,-0.001,0.232,0.002,0.000,0
20260703_203136,case01_baseline_boxes,6,294.5,1.000,13.346,579.085,-1.437,745.379,-10.639,0.000,0.972,38.461,-0.061,0.000,-0.014,0.060,-0.020,0.000,0.195,0.026,-84.698,0.003,0.000,-0.120,0.000,-0.002,0.000,0.000,0.000,0.000,-0.302,-0.009,0.265,0.000,1,1,1,1,0.001,0.004,0.040,0.231,0.002,0.002,-0.001,-0.001,0.231,0.002,0.000,0
20260703_203136,case01_baseline_boxes,6,294.5,1.000,13.458,577.898,-1.437,745.488,-10.618,0.000,0.968,38.383,0.215,0.000,-0.042,-0.217,-0.022,0.000,0.196,0.025,-84.710,0.003,-0.001,-0.125,0.000,-0.002,0.000,0.000,0.008,-0.002,-0.299,-0.009,0.260,0.000,1,1,1,1,-0.002,-0.004,0.032,-0.188,0.002,0.002,0.000,0.000,0.188,0.002,0.000,0
20260703_203136,case01_baseline_boxes,6,294.5,1.000,13.562,576.792,-1.437,745.588,-10.652,0.000,0.969,38.506,-0.343,0.000,0.011,0.342,-0.020,0.000,0.196,0.025,-84.722,0.001,0.000,-0.115,0.000,-0.002,0.000,0.001,-0.008,0.002,-0.296,-0.009,0.263,0.000,1,1,1,1,0.001,0.004,0.040,0.230,0.002,0.002,-0.001,-0.001,0.230,0.002,0.000,0
20260703_203136,case01_baseline_boxes,6,294.5,1.000,13.666,575.686,-1.437,745.689,-10.658,0.000,0.967,38.526,-0.055,0.000,-0.014,0.053,-0.019,0.000,0.196,0.025,-84.733,0.001,0.000,-0.115,0.000,-0.002,0.000,0.000,0.000,0.000,-0.290,-0.010,0.262,0.000,1,1,1,1,0.001,0.004,0.040,0.230,0.002,0.002,-0.001,-0.001,0.230,0.002,0.000,0
20260703_203136,case01_baseline_boxes,6,294.5,1.000,13.770,574.578,-1.437,745.789,-10.663,0.000,0.966,38.544,-0.053,0.000,-0.015,0.052,-0.019,0.000,0.196,0.025,-84.745,-0.001,0.000,-0.114,0.000,-0.002,0.000,0.000,0.000,0.000,-0.282,-0.010,0.262,0.000,1,1,1,1,0.001,0.004,0.040,0.229,0.002,0.002,-0.001,-0.001,0.229,0.002,0.000,0
20260703_203136,case01_baseline_boxes,6,294.5,1.000,13.882,573.383,-1.437,745.898,-10.669,0.000,0.964,38.566,-0.061,0.000,-0.019,0.059,-0.024,0.000,0.196,0.025,-84.757,0.001,-0.002,-0.120,0.000,-0.002,0.000,0.000,0.000,0.000,-0.290,-0.010,0.261,0.000,1,1,1,1,0.001,0.004,0.040,0.229,0.002,0.002,-0.001,-0.001,0.229,0.002,0.000,0
20260703_203136,case01_baseline_boxes,6,294.5,1.000,13.986,572.274,-1.437,745.998,-10.674,0.000,0.962,38.583,-0.050,0.000,-0.017,0.048,-0.021,0.000,0.196,0.025,-84.768,-0.002,0.000,-0.114,0.000,-0.002,0.000,0.000,0.000,0.000,-0.287,-0.010,0.260,0.000,1,1,1,1,0.001,0.004,0.040,0.228,0.002,0.002,-0.001,-0.001,0.228,0.002,0.000,0
20260703_203136,case01_baseline_boxes,6,294.5,1.000,14.110,570.950,-1.437,746.117,-10.653,0.000,0.957,38.504,0.214,0.000,-0.050,-0.218,-0.030,0.000,0.196,0.025,-84.782,-0.002,0.000,-0.137,0.000,-0.002,0.000,0.000,0.007,-0.002,-0.304,-0.009,0.255,0.000,1,1,1,1,-0.002,-0.004,0.031,-0.186,0.002,0.002,0.000,0.000,0.186,0.002,0.000,0
20260703_203136,case01_baseline_boxes,6,294.5,1.000,14.214,569.843,-1.437,746.216,-10.657,0.000,0.956,38.521,-0.047,0.000,-0.017,0.045,-0.021,0.000,0.195,0.025,-84.793,-0.001,0.000,-0.115,0.000,-0.002,0.000,0.000,0.000,0.000,-0.299,-0.010,0.254,0.000,1,1,1,1,-0.002,-0.004,0.031,-0.186,0.002,0.002,0.000,0.000,0.186,0.002,0.000,0
20260703_203136,case01_baseline_boxes,6,294.5,1.000,14.314,568.773,-1.437,746.312,-10.662,0.000,0.954,38.536,-0.045,0.000,-0.020,0.043,-0.023,0.000,0.195,0.025,-84.805,-0.002,-0.001,-0.114,0.000,-0.002,0.000,0.000,-0.001,0.000,-0.298,-0.010,0.254,0.000,1,1,1,1,-0.002,-0.004,0.031,-0.186,0.002,0.002,0.000,0.000,0.186,0.002,0.000,0
20260703_203136,case01_baseline_boxes,6,294.5,1.000,14.418,567.665,-1.437,746.411,-10.666,0.000,0.952,38.551,-0.044,0.000,-0.020,0.042,-0.024,0.000,0.195,0.025,-84.817,-0.003,-0.001,-0.121,0.000,-0.002,0.000,0.000,-0.001,0.000,-0.298,-0.010,0.253,0.000,1,1,1,1,-0.002,-0.004,0.031,-0.185,0.002,0.002,0.000,0.000,0.185,0.002,0.000,0
20260703_203136,case01_baseline_boxes,6,294.5,1.000,14.522,566.554,-1.437,746.510,-10.698,0.000,0.952,38.666,-0.321,0.000,0.004,0.320,-0.025,0.001,0.195,0.025,-84.829,-0.002,0.000,-0.125,0.000,-0.003,0.000,0.000,-0.008,0.002,-0.299,-0.010,0.257,0.000,1,1,1,1,0.001,0.004,0.039,0.226,0.002,0.002,-0.001,-0.001,0.226,0.002,0.000,0
20260703_203136,case01_baseline_boxes,6,294.5,1.000,14.634,565.358,-1.437,746.616,-10.675,0.000,0.947,38.582,0.230,0.000,-0.048,-0.234,-0.027,0.000,0.195,0.025,-84.843,-0.003,0.001,-0.138,0.000,-0.002,0.000,0.000,0.007,-0.002,-0.302,-0.010,0.252,0.000,1,1,1,1,-0.002,-0.004,0.031,-0.185,0.001,0.001,0.000,0.000,0.185,0.001,0.000,0
20260703_203136,case01_baseline_boxes,6,294.5,1.000,14.738,564.242,-1.437,746.715,-10.679,0.000,0.945,38.596,-0.040,0.000,-0.022,0.038,-0.026,0.000,0.194,0.025,-84.856,-0.002,-0.001,-0.130,0.000,-0.002,0.000,0.000,-0.001,0.000,-0.298,-0.010,0.251,0.000,1,1,1,1,-0.002,-0.004,0.031,-0.184,0.001,0.001,0.000,0.000,0.184,0.001,0.000,0
20260703_203136,case01_baseline_boxes,6,294.5,1.000,14.850,563.049,-1.437,746.821,-10.711,0.000,0.945,38.709,-0.315,0.000,0.001,0.314,-0.027,0.001,0.194,0.025,-84.871,-0.001,0.000,-0.145,0.000,-0.003,0.000,0.000,-0.008,0.002,-0.302,-0.010,0.255,0.000,1,1,1,1,0.001,0.004,0.039,0.225,0.002,0.002,-0.001,-0.001,0.225,0.002,0.000,0
20260703_203136,case01_baseline_boxes,6,294.5,1.000,14.970,561.765,-1.437,746.934,-10.715,0.000,0.942,38.723,-0.043,0.000,-0.027,0.041,-0.031,0.000,0.194,0.025,-84.886,-0.002,0.000,-0.157,0.000,-0.003,0.000,0.000,0.000,0.000,-0.312,-0.011,0.254,0.000,1,1,1,1,0.001,0.004,0.039,0.225,0.002,0.002,-0.001,-0.001,0.225,0.002,0.000,0
20260703_203136,case01_baseline_boxes,6,294.5,1.000,15.082,560.568,-1.437,747.039,-10.719,0.000,0.940,38.737,-0.042,0.000,-0.028,0.039,-0.032,0.000,0.194,0.025,-84.901,-0.001,-0.001,-0.148,0.000,-0.003,0.000,0.000,-0.001,0.000,-0.318,-0.011,0.254,0.000,1,1,1,1,0.001,0.004,0.039,0.224,0.002,0.002,-0.001,-0.001,0.224,0.002,0.000,0
20260703_203136,case01_baseline_boxes,6,294.5,1.000,15.182,559.493,-1.437,747.133,-10.723,0.000,0.937,38.749,-0.034,0.000,-0.024,0.031,-0.027,0.000,0.194,0.025,-84.915,0.000,0.000,-0.138,0.000,-0.003,0.000,0.000,-0.001,0.000,-0.317,-0.011,0.253,0.000,1,1,1,1,0.001,0.004,0.039,0.224,0.002,0.002,-0.001,-0.001,0.224,0.002,0.000,0
20260703_203136,case01_baseline_boxes,6,294.5,1.000,15.286,558.377,-1.437,747.230,-10.726,0.000,0.935,38.760,-0.033,0.000,-0.025,0.030,-0.028,0.000,0.194,0.025,-84.930,0.001,0.000,-0.146,0.000,-0.003,0.000,0.000,0.000,0.000,-0.345,-0.011,0.253,0.000,1,1,1,1,0.001,0.004,0.038,0.224,0.002,0.002,-0.001,-0.001,0.224,0.002,0.000,0
20260703_203136,case01_baseline_boxes,6,294.5,1.000,15.394,557.222,-1.437,747.331,-10.702,0.000,0.929,38.673,0.237,0.000,-0.053,-0.241,-0.032,0.000,0.194,0.025,-84.945,0.001,-0.001,-0.154,0.000,-0.002,0.000,0.000,0.007,-0.002,-0.348,-0.011,0.248,0.000,1,1,1,1,-0.002,-0.004,0.031,-0.183,0.002,0.002,0.000,0.000,0.183,0.002,0.000,0
20260703_203136,case01_baseline_boxes,6,294.5,1.000,15.502,556.063,-1.437,747.431,-10.733,0.000,0.929,38.782,-0.305,0.000,-0.003,0.303,-0.030,0.001,0.194,0.025,-84.961,0.001,0.000,-0.156,0.000,-0.003,0.000,0.000,-0.008,0.002,-0.346,-0.012,0.252,0.000,1,1,1,1,0.001,0.004,0.038,0.223,0.002,0.002,-0.001,-0.001,0.223,0.002,0.000,0
20260703_203136,case01_baseline_boxes,6,294.5,1.000,15.610,554.904,-1.437,747.532,-10.709,0.000,0.924,38.695,0.239,0.000,-0.054,-0.242,-0.032,0.000,0.194,0.025,-84.977,0.002,0.000,-0.161,0.000,-0.002,0.000,0.000,0.007,-0.002,-0.350,-0.012,0.247,0.000,1,1,1,1,-0.002,-0.004,0.031,-0.183,0.002,0.002,0.000,0.000,0.183,0.002,0.000,0
20260703_203136,case01_baseline_boxes,6,294.5,1.000,15.714,553.795,-1.437,747.627,-10.712,0.000,0.921,38.704,-0.029,0.000,-0.026,0.026,-0.029,0.000,0.194,0.025,-84.992,0.002,0.000,-0.154,0.000,-0.002,0.000,0.000,0.000,0.000,-0.346,-0.012,0.247,0.000,1,1,1,1,-0.002,-0.004,0.030,-0.182,0.002,0.002,0.000,0.000,0.182,0.002,0.000,0
20260703_203136,case01_baseline_boxes,6,294.5,1.000,15.814,552.718,-1.437,747.720,-10.714,0.000,0.918,38.714,-0.028,0.000,-0.027,0.025,-0.030,0.000,0.195,0.025,-85.007,0.002,0.000,-0.152,0.000,-0.002,0.000,0.000,0.000,0.000,-0.342,-0.012,0.247,0.000,1,1,1,1,-0.002,-0.004,0.030,-0.182,0.002,0.002,0.000,0.000,0.182,0.002,0.000,0
20260703_203136,case01_baseline_boxes,6,294.5,1.000,15.922,551.561,-1.437,747.818,-10.744,0.000,0.918,38.821,-0.299,0.000,-0.006,0.298,-0.032,0.000,0.195,0.025,-85.024,0.002,0.000,-0.165,0.000,-0.003,0.000,0.000,-0.008,0.002,-0.343,-0.012,0.250,0.000,1,1,1,1,0.001,0.004,0.038,0.222,0.002,0.002,0.000,0.000,0.222,0.002,0.000,0
20260703_203136,case01_baseline_boxes,6,294.5,1.000,16.030,550.403,-1.437,747.917,-10.747,0.000,0.915,38.829,-0.026,0.000,-0.029,0.023,-0.031,0.000,0.195,0.025,-85.041,0.003,0.000,-0.171,0.000,-0.003,0.000,0.000,0.000,0.000,-0.336,-0.011,0.250,0.000,1,1,1,1,0.001,0.004,0.038,0.221,0.002,0.002,0.000,0.000,0.221,0.002,0.000,0
20260703_203136,case01_baseline_boxes,6,294.5,1.000,16.142,549.196,-1.437,748.020,-10.750,0.000,0.911,38.839,-0.030,0.000,-0.034,0.027,-0.037,0.000,0.196,0.025,-85.059,0.003,-0.001,-0.177,0.000,-0.003,0.000,0.000,0.000,0.000,-0.346,-0.012,0.249,0.000,1,1,1,1,0.001,0.004,0.038,0.221,0.002,0.002,0.000,0.000,0.221,0.002,0.000,0
20260703_203136,case01_baseline_boxes,6,294.5,1.000,16.246,548.083,-1.437,748.114,-10.752,0.000,0.908,38.847,-0.024,0.000,-0.030,0.021,-0.032,0.000,0.196,0.025,-85.076,0.003,0.000,-0.167,0.000,-0.003,0.000,0.000,0.000,0.000,-0.375,-0.011,0.249,0.000,1,1,1,1,0.001,0.004,0.038,0.221,0.003,0.003,0.000,0.000,0.221,0.003,0.000,0
20260703_203136,case01_baseline_boxes,6,294.5,1.000,16.354,546.930,-1.194,748.201,-10.483,0.370,0.830,37.879,2.696,3.695,-0.783,-2.660,-0.588,3.757,-0.598,-1.444,-85.065,-7.941,-14.685,0.105,0.025,-0.007,-0.100,0.250,-0.039,-1.006,-0.635,-0.018,0.288,0.000,1,1,1,1,0.027,0.226,0.091,0.040,0.008,0.006,0.001,0.001,0.226,0.008,0.024,0
20260703_203136,case01_baseline_boxes,6,294.5,1.000,16.454,545.892,-1.186,748.284,-10.282,-0.281,0.823,37.149,2.004,-6.507,-0.070,-2.219,0.184,-6.435,-0.739,-1.914,-85.100,-1.409,-4.704,-0.350,0.019,-0.004,-0.058,-0.057,0.027,0.425,-0.524,-0.017,0.313,0.000,0,0,1,1,0.000,0.000,0.054,0.039,0.000,0.000,0.000,0.000,0.054,0.000,0.000,0
20260703_203136,case01_baseline_boxes,6,294.5,1.000,16.562,544.784,-1.236,748.373,-10.245,-0.625,0.820,37.069,0.372,-3.435,-0.033,-0.502,0.052,-3.418,-0.885,-2.144,-85.118,-1.458,-2.300,-0.179,0.022,-0.002,-0.018,0.025,0.022,0.404,-0.497,-0.017,0.311,0.000,0,0,1,1,0.000,0.000,0.037,-0.204,0.000,0.000,0.000,0.000,0.204,0.000,0.000,0
20260703_203136,case01_baseline_boxes,6,294.5,1.000,16.662,543.758,-1.307,748.456,-10.214,-0.794,0.818,36.998,0.313,-1.696,-0.023,-0.376,0.034,-1.683,-1.018,-2.121,-85.125,-1.336,0.228,-0.073,0.026,-0.001,0.025,0.038,0.017,0.421,-0.507,-0.017,0.310,0.000,0,0,1,1,0.000,0.000,0.018,-0.331,0.000,0.000,0.000,0.000,0.331,0.000,0.000,0
20260703_203136,case01_baseline_boxes,6,294.5,1.000,16.770,542.655,-1.381,748.546,-10.161,-0.187,0.841,36.709,0.534,6.077,0.238,-0.324,0.161,6.094,-1.143,-1.765,-85.129,-1.248,3.567,-0.039,0.017,-0.003,0.106,-0.086,-0.021,0.815,-0.658,-0.019,0.328,0.000,0,0,1,1,0.000,0.000,0.004,-0.158,0.000,0.000,0.002,0.002,0.158,0.002,0.000,0
20260703_203136,case01_baseline_boxes,6,294.5,1.000,16.878,541.550,-1.420,748.637,-10.176,-0.491,0.841,36.801,-0.155,-3.040,-0.006,0.102,0.044,-3.042,-1.190,-0.989,-85.140,-0.472,7.757,-0.112,0.018,-0.001,0.137,0.012,0.013,0.309,-0.727,-0.025,0.331,0.000,0,1,1,1,0.000,-0.186,0.053,0.344,0.000,0.010,0.000,0.000,0.344,0.010,0.000,0
20260703_203136,case01_baseline_boxes,6,294.5,1.000,16.986,540.448,-1.465,748.727,-10.200,-0.303,0.830,36.856,-0.235,1.875,-0.110,0.231,-0.169,1.871,-1.199,-0.175,-85.158,-0.085,8.138,-0.181,0.008,-0.005,0.118,-0.099,-0.038,-0.187,-0.779,-0.026,0.326,0.000,1,1,1,1,0.000,0.318,0.051,-0.241,0.006,0.006,-0.001,-0.001,0.318,0.006,0.000,0
20260703_203136,case01_baseline_boxes,6,294.5,1.000,17.094,539.343,-1.474,748.817,-10.278,0.355,0.848,37.150,-0.788,6.579,0.184,0.755,-0.015,6.585,-1.159,0.394,-85.190,0.398,5.695,-0.313,-0.016,-0.001,0.045,-0.243,0.040,-0.731,-0.717,-0.024,0.310,0.000,1,1,1,1,-0.002,-0.249,0.058,0.240,0.007,0.007,-0.003,-0.003,0.249,0.007,0.000,0
20260703_203136,case01_baseline_boxes,6,294.5,1.000,17.206,538.185,-1.437,748.912,-10.337,0.293,0.856,37.357,-0.590,-0.612,0.079,0.601,0.040,-0.606,-1.014,0.590,-85.208,1.451,1.957,-0.185,-0.024,-0.005,0.020,-0.078,-0.033,-0.251,-0.628,-0.021,0.308,0.000,1,1,1,1,0.001,0.197,0.074,0.028,0.002,0.002,-0.003,-0.003,0.197,0.003,0.000,0
20260703_203136,case01_baseline_boxes,6,294.5,1.000,17.318,537.028,-1.411,749.008,-10.358,0.158,0.866,37.422,-0.203,-1.356,0.096,0.226,0.099,-1.352,-0.834,0.632,-85.234,1.798,0.415,-0.262,-0.031,-0.004,-0.001,-0.068,0.001,-0.206,-0.524,-0.017,0.301,0.000,1,1,1,1,-0.001,-0.076,0.068,0.029,0.000,0.000,-0.002,-0.002,0.076,0.002,0.000,0
20260703_203136,case01_baseline_boxes,6,294.5,1.000,17.434,535.825,-1.402,749.108,-10.392,0.006,0.877,37.544,-0.344,-1.520,0.114,0.367,0.102,-1.516,-0.618,0.553,-85.261,2.160,-0.783,-0.268,-0.036,-0.004,-0.016,-0.051,0.002,-0.153,-0.439,-0.014,0.297,0.000,1,1,1,1,0.000,0.000,0.057,0.031,0.000,0.000,-0.002,-0.002,0.057,0.002,0.000,0
20260703_203136,case01_baseline_boxes,6,294.5,1.000,17.542,534.701,-1.407,749.203,-10.413,-0.089,0.884,37.624,-0.213,-0.950,0.073,0.225,0.062,-0.948,-0.400,0.411,-85.284,2.181,-1.419,-0.224,-0.038,-0.004,-0.023,-0.023,0.005,-0.072,-0.422,-0.013,0.294,0.000,1,1,1,1,0.000,0.000,0.048,0.029,0.001,0.001,-0.001,-0.001,0.048,0.001,0.000,0
20260703_203136,case01_baseline_boxes,6,294.5,1.000,17.650,533.579,-1.367,749.295,-9.965,0.076,0.536,35.928,4.480,1.656,-3.483,-4.760,-3.116,1.606,-0.310,0.399,-85.335,0.902,-0.126,-0.515,-0.057,-0.025,0.006,-0.190,-0.217,0.289,-0.375,-0.010,0.340,0.000,1,1,1,1,0.030,0.019,-0.176,0.044,-0.032,-0.032,0.014,-0.016,0.176,0.032,0.008,0
20260703_203136,case01_baseline_boxes,6,294.5,1.000,17.754,532.545,-1.064,749.374,-9.913,0.227,0.787,35.809,0.522,1.508,2.514,-0.363,2.525,1.537,-0.850,1.485,-85.539,-5.398,10.857,-2.043,-0.003,-0.007,0.064,0.536,0.180,0.587,-0.107,-0.003,0.374,0.000,0,1,1,1,0.000,0.001,0.143,0.397,0.000,-0.003,0.020,0.004,0.397,0.020,0.003,0
20260703_203136,case01_baseline_boxes,6,294.5,1.000,17.858,531.518,-1.087,749.456,-9.810,-0.588,0.789,35.494,1.031,-8.156,0.012,-0.776,0.202,-8.181,-0.772,1.757,-85.579,0.782,2.728,-0.400,-0.012,-0.006,0.028,-0.088,0.019,-0.366,-0.028,-0.001,0.379,0.000,1,1,0,0,0.002,0.000,0.000,0.000,-0.004,-0.004,0.000,0.000,0.002,0.004,0.000,0
20260703_203136,case01_baseline_boxes,6,294.5,1.000,17.966,530.461,-1.182,749.541,-9.800,-1.108,0.797,35.622,0.098,-5.201,0.087,0.070,0.156,-5.200,-0.673,1.773,-85.605,0.984,0.158,-0.252,-0.019,-0.004,-0.021,-0.067,0.017,-0.494,-0.022,-0.001,0.374,0.000,1,1,0,0,0.001,0.000,0.000,0.000,-0.002,-0.002,0.000,0.000,0.001,0.002,0.000,0
20260703_203136,case01_baseline_boxes,6,294.5,1.000,18.074,529.399,-1.322,749.627,-9.802,-1.453,0.800,35.788,-0.013,-3.442,0.030,0.102,0.063,-3.440,-0.563,1.441,-85.623,1.098,-3.324,-0.180,-0.024,-0.003,-0.084,-0.056,0.007,-0.622,-0.047,-0.002,0.368,0.000,1,1,0,0,0.001,0.000,0.000,0.000,0.000,0.000,0.000,0.000,0.001,0.000,0.000,0
20260703_203136,case01_baseline_boxes,6,294.5,1.000,18.182,528.333,-1.453,749.714,-10.099,-1.073,0.822,36.682,-2.977,3.796,0.213,2.940,-0.041,3.830,-0.392,0.663,-85.619,1.708,-7.774,0.036,-0.035,0.003,-0.122,-0.107,0.061,-0.380,-0.072,-0.003,0.344,0.000,1,1,1,1,0.002,0.018,0.484,0.414,0.004,0.004,-0.001,-0.001,0.484,0.004,0.000,0
20260703_203136,case01_baseline_boxes,6,294.5,1.000,18.290,527.249,-1.539,749.802,-10.087,-0.532,0.813,36.483,0.120,5.406,-0.084,-0.120,-0.098,5.406,-0.247,-0.065,-85.601,1.451,-7.283,0.179,-0.030,0.000,-0.107,0.055,-0.032,0.145,-0.113,-0.004,0.341,0.000,1,1,1,1,0.001,0.020,-0.272,0.471,0.005,0.005,-0.002,-0.002,0.471,0.005,0.000,0
20260703_203136,case01_baseline_boxes,6,294.5,1.000,18.394,526.204,-1.518,749.886,-10.039,0.398,0.822,36.290,0.482,9.303,0.092,-0.400,0.120,9.307,-0.055,-0.452,-85.605,1.920,-3.874,-0.044,-0.038,0.000,-0.041,-0.081,-0.001,0.667,-0.119,-0.004,0.340,0.000,1,1,1,1,-0.006,-0.006,-0.003,-0.258,0.000,0.000,0.000,0.000,0.258,0.000,0.000,0
20260703_203136,case01_baseline_boxes,6,294.5,1.000,18.494,525.196,-1.480,749.968,-10.043,0.343,0.822,36.297,-0.040,-0.548,-0.004,0.034,-0.008,-0.548,0.138,-0.620,-85.611,1.936,-1.675,-0.057,-0.034,0.000,-0.012,0.037,0.004,0.280,-0.110,-0.004,0.340,0.000,1,1,1,1,-0.006,-0.005,0.015,-0.274,0.000,0.000,0.000,0.000,0.274,0.000,0.000,0
20260703_203136,case01_baseline_boxes,6,294.5,1.000,18.606,524.067,-1.448,750.060,-10.091,0.216,0.823,36.458,-0.483,-1.274,0.014,0.469,-0.031,-1.279,0.344,-0.626,-85.616,2.058,-0.058,-0.047,-0.030,-0.001,0.014,0.041,-0.008,0.267,-0.130,-0.004,0.346,0.000,1,1,1,1,-0.001,0.003,0.052,0.313,0.002,0.002,0.000,0.000,0.313,0.002,0.000,0
20260703_203136,case01_baseline_boxes,6,294.5,1.000,18.714,522.979,-1.432,750.147,-10.071,0.099,0.817,36.377,0.203,-1.165,-0.068,-0.217,-0.063,-1.163,0.527,-0.495,-85.619,1.833,1.310,-0.032,-0.026,0.000,0.031,0.041,0.010,0.164,-0.162,-0.005,0.339,0.000,1,1,1,1,-0.003,-0.004,0.034,-0.211,0.002,0.002,0.000,0.000,0.211,0.002,0.000,0
20260703_203136,case01_baseline_boxes,6,294.5,1.000,18.822,521.891,-1.425,750.235,-10.123,0.031,0.813,36.559,-0.515,-0.686,-0.040,0.507,-0.087,-0.688,0.690,-0.294,-85.622,1.623,2.008,-0.026,-0.021,-0.001,0.037,0.044,-0.009,0.061,-0.214,-0.007,0.340,0.000,1,1,1,1,0.001,0.003,0.049,0.229,0.003,0.003,0.000,0.000,0.229,0.003,0.000,0
20260703_203136,case01_baseline_boxes,6,294.5,1.000,18.922,520.876,-1.423,750.315,-10.146,0.009,0.805,36.640,-0.230,-0.218,-0.078,0.223,-0.098,-0.217,0.817,-0.097,-85.625,1.273,1.970,-0.030,-0.017,-0.001,0.034,0.041,-0.001,-0.027,-0.249,-0.008,0.336,0.000,1,1,1,1,0.001,0.003,0.048,0.176,0.003,0.003,0.000,0.000,0.176,0.003,0.000,0
20260703_203136,case01_baseline_boxes,6,294.5,1.000,19.026,519.821,-1.422,750.398,-10.170,0.010,0.796,36.725,-0.245,0.013,-0.092,0.237,-0.110,0.015,0.922,0.078,-85.629,1.046,1.745,-0.045,-0.013,-0.001,0.026,0.041,-0.002,-0.077,-0.278,-0.009,0.331,0.000,1,1,1,1,0.000,0.001,0.046,0.096,0.003,0.003,0.000,0.000,0.096,0.003,0.000,0
20260703_203136,case01_baseline_boxes,6,294.5,1.000,19.130,518.763,-1.421,750.480,-10.198,0.017,0.786,36.821,-0.274,0.073,-0.096,0.266,-0.115,0.076,0.996,0.198,-85.636,0.748,1.207,-0.064,-0.009,-0.001,0.016,0.041,-0.003,-0.100,-0.333,-0.011,0.326,0.000,1,1,1,1,0.000,0.000,0.045,0.045,0.004,0.004,0.000,0.000,0.045,0.004,0.000,0
20260703_203136,case01_baseline_boxes,6,294.5,1.000,19.234,517.699,-1.419,750.561,-10.229,0.019,0.776,36.931,-0.316,0.015,-0.103,0.307,-0.127,0.018,1.042,0.258,-85.644,0.454,0.600,-0.088,-0.005,-0.002,0.005,0.043,-0.004,-0.109,-0.365,-0.012,0.322,0.000,1,1,1,1,0.000,0.000,0.044,0.033,0.004,0.004,0.000,0.000,0.044,0.004,0.000,0
20260703_203136,case01_baseline_boxes,6,294.5,1.000,19.342,516.589,-1.417,750.645,-10.259,0.009,0.766,37.034,-0.294,-0.099,-0.100,0.286,-0.124,-0.096,1.059,0.263,-85.656,0.173,0.046,-0.117,-0.001,-0.002,-0.003,0.041,-0.004,-0.088,-0.395,-0.013,0.318,0.000,1,1,1,1,0.000,0.000,0.043,0.034,0.003,0.003,0.000,0.000,0.043,0.003,0.000,0
20260703_203136,case01_baseline_boxes,6,294.5,1.000,19.450,515.480,-1.417,750.727,-10.284,-0.009,0.756,37.124,-0.258,-0.177,-0.096,0.250,-0.119,-0.174,1.048,0.224,-85.671,-0.107,-0.385,-0.145,0.003,-0.003,-0.009,0.039,-0.004,-0.057,-0.416,-0.014,0.314,0.000,1,1,1,1,0.000,0.000,0.042,0.032,0.003,0.003,0.000,0.000,0.042,0.003,0.000,0
20260703_203136,case01_baseline_boxes,6,294.5,1.000,19.566,514.287,-1.419,750.814,-10.307,-0.027,0.747,37.201,-0.222,-0.182,-0.092,0.215,-0.112,-0.179,1.009,0.157,-85.689,-0.393,-0.676,-0.185,0.007,-0.003,-0.012,0.037,-0.004,-0.026,-0.438,-0.015,0.311,0.000,1,1,1,1,0.000,0.000,0.041,0.031,0.003,0.003,0.000,0.000,0.041,0.003,0.000,0
20260703_203136,case01_baseline_boxes,6,294.5,1.000,19.666,513.254,-1.423,750.889,-10.324,-0.038,0.739,37.262,-0.176,-0.115,-0.080,0.169,-0.095,-0.113,0.954,0.093,-85.707,-0.545,-0.641,-0.183,0.010,-0.003,-0.012,0.031,-0.003,0.000,-0.486,-0.016,0.308,0.000,1,1,1,1,0.000,0.000,0.040,0.030,0.004,0.004,0.000,0.000,0.040,0.004,0.000,0
20260703_203136,case01_baseline_boxes,6,294.5,1.000,19.774,512.141,-1.427,750.968,-10.341,-0.043,0.731,37.322,-0.171,-0.041,-0.083,0.164,-0.096,-0.040,0.878,0.031,-85.729,-0.767,-0.616,-0.216,0.013,-0.004,-0.010,0.030,-0.003,0.018,-0.493,-0.017,0.306,0.000,1,1,1,1,0.000,0.000,0.039,0.029,0.003,0.003,0.000,0.000,0.039,0.003,0.000,0
20260703_203136,case01_baseline_boxes,6,294.5,1.000,19.882,511.024,-1.431,751.047,-10.357,-0.038,0.723,37.376,-0.156,0.044,-0.078,0.150,-0.089,0.045,0.786,-0.015,-85.752,-0.921,-0.460,-0.234,0.016,-0.004,-0.007,0.024,-0.003,0.029,-0.500,-0.017,0.304,0.000,1,1,1,1,0.000,0.000,0.038,0.029,0.003,0.003,0.000,0.000,0.038,0.003,0.000,0
20260703_203136,case01_baseline_boxes,6,294.5,1.000,20.002,509.778,-1.435,751.134,-10.373,-0.027,0.715,37.432,-0.161,0.110,-0.078,0.155,-0.088,0.111,0.669,-0.043,-85.780,-1.162,-0.284,-0.277,0.017,-0.004,-0.004,0.019,-0.002,0.034,-0.507,-0.017,0.301,0.000,1,1,1,1,0.000,0.000,0.038,0.028,0.003,0.003,0.000,0.000,0.038,0.003,0.000,0
20260703_203136,case01_baseline_boxes,6,294.5,1.000,20.110,508.655,-1.438,751.211,-10.387,-0.016,0.709,37.482,-0.144,0.116,-0.061,0.140,-0.070,0.117,0.557,-0.049,-85.806,-1.122,-0.060,-0.258,0.018,-0.004,-0.001,0.010,-0.001,0.027,-0.499,-0.017,0.299,0.000,1,1,1,1,0.000,0.000,0.039,0.028,0.003,0.003,0.000,0.000,0.039,0.003,0.000,0
20260703_203136,case01_baseline_boxes,6,294.5,1.000,20.214,507.579,-1.439,751.285,-10.401,-0.007,0.704,37.528,-0.132,0.090,-0.046,0.128,-0.055,0.091,0.447,-0.041,-85.831,-1.102,0.081,-0.250,0.019,-0.004,0.001,0.003,0.000,0.018,-0.484,-0.016,0.297,0.000,1,1,1,1,0.000,0.000,0.039,0.028,0.002,0.002,0.000,0.000,0.039,0.002,0.000,0
20260703_203136,case01_baseline_boxes,6,294.5,1.000,20.327,506.405,-1.439,751.364,-10.415,0.000,0.700,37.579,-0.146,0.065,-0.041,0.143,-0.051,0.065,0.328,-0.023,-85.858,-1.189,0.186,-0.274,0.018,-0.004,0.002,-0.004,0.000,0.011,-0.527,-0.016,0.295,0.000,1,1,1,1,0.000,0.000,0.040,0.027,0.003,0.003,0.000,0.000,0.040,0.003,0.000,0
20260703_203136,case01_baseline_boxes,6,294.5,1.000,20.438,505.244,-1.439,751.442,-10.430,0.002,0.697,37.632,-0.147,0.025,-0.030,0.145,-0.040,0.026,0.216,0.000,-85.885,-1.122,0.225,-0.271,0.017,-0.004,0.002,-0.011,0.000,0.003,-0.514,-0.017,0.293,0.000,1,1,1,1,0.000,0.000,0.040,0.027,0.003,0.003,0.000,0.000,0.040,0.003,0.000,0
20260703_203136,case01_baseline_boxes,6,294.5,1.000,20.542,504.160,-1.439,751.515,-10.445,0.002,0.695,37.684,-0.147,-0.007,-0.019,0.145,-0.030,-0.007,0.119,0.020,-85.911,-0.966,0.201,-0.252,0.016,-0.004,0.002,-0.016,0.000,-0.004,-0.500,-0.017,0.291,0.000,1,1,1,1,0.000,0.000,0.041,0.027,0.002,0.002,0.000,0.000,0.041,0.002,0.000,0
20260703_203136,case01_baseline_boxes,6,294.5,1.000,20.646,503.075,-1.439,751.588,-10.458,-0.001,0.694,37.731,-0.132,-0.023,-0.011,0.131,-0.021,-0.023,0.033,0.036,-85.936,-0.866,0.162,-0.251,0.014,-0.004,0.001,-0.018,0.000,-0.007,-0.483,-0.016,0.289,0.000,1,1,1,1,0.000,0.000,0.041,0.027,0.002,0.002,0.000,0.000,0.041,0.002,0.000,0
20260703_203136,case01_baseline_boxes,6,294.5,1.000,20.754,501.943,-1.439,751.663,-10.472,-0.004,0.694,37.781,-0.141,-0.031,-0.007,0.140,-0.017,-0.031,-0.045,0.047,-85.962,-0.773,0.108,-0.259,0.011,-0.004,0.000,-0.023,0.000,-0.009,-0.475,-0.016,0.287,0.000,1,1,1,1,0.000,0.000,0.041,0.027,0.002,0.002,0.000,0.000,0.041,0.002,0.000,0
20260703_203136,case01_baseline_boxes,6,294.5,1.000,20.854,500.895,-1.439,751.733,-10.484,-0.006,0.693,37.826,-0.123,-0.024,-0.004,0.123,-0.012,-0.024,-0.104,0.051,-85.986,-0.588,0.042,-0.240,0.009,-0.004,0.000,-0.023,0.000,-0.008,-0.507,-0.015,0.285,0.000,1,1,1,1,0.000,0.000,0.041,0.027,0.002,0.002,0.000,0.000,0.041,0.002,0.000,0
20260703_203136,case01_baseline_boxes,6,294.5,1.000,20.958,499.802,-1.440,751.805,-10.496,-0.007,0.693,37.868,-0.118,-0.014,0.001,0.117,-0.007,-0.014,-0.151,0.050,-86.010,-0.476,-0.008,-0.248,0.007,-0.004,-0.001,-0.023,0.000,-0.006,-0.494,-0.017,0.284,0.000,1,1,1,1,0.000,0.000,0.041,0.027,0.002,0.002,-0.001,-0.001,0.041,0.002,0.000,0
20260703_203136,case01_baseline_boxes,6,294.5,1.000,21.074,498.583,-1.441,751.886,-10.509,-0.008,0.693,37.916,-0.133,-0.001,-0.001,0.133,-0.010,-0.001,-0.188,0.045,-86.038,-0.363,-0.055,-0.277,0.004,-0.004,-0.001,-0.028,0.000,-0.004,-0.500,-0.017,0.282,0.000,1,1,1,1,0.000,0.000,0.040,0.028,0.002,0.002,-0.001,-0.001,0.040,0.002,0.000,0
20260703_203136,case01_baseline_boxes,6,294.5,1.000,21.182,497.452,-1.442,751.961,-10.520,-0.006,0.693,37.956,-0.111,0.013,-0.003,0.111,-0.010,0.013,-0.206,0.038,-86.064,-0.181,-0.074,-0.259,0.002,-0.004,-0.001,-0.024,0.000,0.000,-0.496,-0.017,0.280,0.000,1,1,1,1,0.000,0.000,0.040,0.022,0.002,0.002,-0.001,-0.001,0.040,0.002,0.000,0
20260703_203136,case01_baseline_boxes,6,294.5,1.000,21.282,496.398,-1.442,752.030,-10.530,-0.004,0.692,37.990,-0.097,0.020,-0.005,0.096,-0.011,0.020,-0.210,0.030,-86.088,-0.043,-0.072,-0.244,0.000,-0.004,-0.001,-0.021,0.000,0.002,-0.481,-0.016,0.279,0.000,1,1,1,1,0.000,0.000,0.040,0.019,0.002,0.002,-0.001,-0.001,0.040,0.002,0.000,0
20260703_203136,case01_baseline_boxes,6,294.5,1.000,21.394,495.218,-1.443,752.108,-10.542,-0.002,0.692,38.031,-0.114,0.027,-0.004,0.114,-0.012,0.027,-0.201,0.023,-86.116,0.085,-0.070,-0.273,-0.002,-0.004,-0.001,-0.021,0.000,0.004,-0.473,-0.016,0.277,0.000,1,1,1,1,0.000,0.000,0.039,0.037,0.002,0.002,-0.001,-0.001,0.039,0.002,0.000,0
20260703_203136,case01_baseline_boxes,6,294.5,1.000,21.498,494.122,-1.443,752.179,-10.551,0.001,0.691,38.065,-0.094,0.026,-0.006,0.094,-0.013,0.026,-0.182,0.019,-86.141,0.194,-0.046,-0.253,-0.004,-0.004,0.000,-0.016,0.000,0.004,-0.499,-0.017,0.276,0.000,1,1,1,1,0.000,0.000,0.039,0.044,0.002,0.002,0.000,0.000,0.044,0.002,0.000,0
20260703_203136,case01_baseline_boxes,6,294.5,1.000,21.610,492.940,-1.442,752.256,-10.557,0.004,0.690,38.088,-0.065,0.026,-0.015,0.064,-0.019,0.026,-0.150,0.016,-86.168,0.317,-0.026,-0.272,-0.006,-0.004,0.000,-0.015,0.001,0.005,-0.498,-0.017,0.274,0.000,1,1,1,1,-0.001,-0.001,0.038,-0.006,0.002,0.002,0.000,0.000,0.038,0.002,0.000,0
20260703_203136,case01_baseline_boxes,6,294.5,1.000,21.714,491.842,-1.442,752.328,-10.571,0.006,0.688,38.137,-0.137,0.021,-0.018,0.136,-0.027,0.021,-0.112,0.016,-86.194,0.378,-0.002,-0.255,-0.007,-0.004,0.001,-0.012,-0.002,0.005,-0.507,-0.017,0.274,0.000,1,1,1,1,0.000,0.001,0.039,0.065,0.002,0.002,0.000,0.000,0.065,0.002,0.000,0
20260703_203136,case01_baseline_boxes,6,294.5,1.000,21.822,490.698,-1.441,752.402,-10.573,0.007,0.685,38.143,-0.020,0.014,-0.035,0.018,-0.036,0.014,-0.067,0.017,-86.221,0.459,0.014,-0.272,-0.008,-0.004,0.001,-0.009,0.001,0.002,-0.513,-0.017,0.271,0.000,1,1,1,1,-0.001,-0.001,0.037,-0.046,0.002,0.002,0.000,0.000,0.046,0.002,0.000,0
20260703_203136,case01_baseline_boxes,6,294.5,1.000,21.934,489.513,-1.440,752.479,-10.597,0.008,0.682,38.229,-0.240,0.008,-0.025,0.237,-0.041,0.008,-0.014,0.020,-86.250,0.524,0.026,-0.287,-0.008,-0.005,0.001,-0.006,-0.005,0.003,-0.520,-0.017,0.272,0.000,1,1,1,1,0.001,0.003,0.040,0.185,0.003,0.003,0.000,0.000,0.185,0.003,0.000,0
20260703_203136,case01_baseline_boxes,6,294.5,1.000,22.038,488.412,-1.440,752.549,-10.607,0.008,0.678,38.264,-0.101,0.002,-0.041,0.099,-0.047,0.002,0.037,0.023,-86.277,0.514,0.027,-0.275,-0.009,-0.005,0.001,-0.003,-0.003,0.000,-0.568,-0.017,0.272,0.000,1,1,1,1,0.002,0.004,0.042,0.244,0.003,0.003,0.000,0.000,0.244,0.003,0.000,0
20260703_203136,case01_baseline_boxes,6,294.5,1.000,22.142,487.311,-1.439,752.619,-10.587,0.008,0.671,38.188,0.207,-0.003,-0.072,-0.211,-0.058,-0.003,0.089,0.025,-86.306,0.522,0.026,-0.284,-0.009,-0.004,0.001,-0.001,0.006,-0.003,-0.577,-0.018,0.266,0.000,1,1,1,1,-0.002,-0.004,0.033,-0.194,0.003,0.003,0.000,0.000,0.194,0.003,0.000,0
20260703_203136,case01_baseline_boxes,6,294.5,1.000,22.242,486.246,-1.438,752.686,-10.595,0.007,0.666,38.216,-0.080,-0.006,-0.051,0.077,-0.056,-0.006,0.139,0.027,-86.334,0.498,0.020,-0.285,-0.008,-0.005,0.001,0.002,-0.001,-0.001,-0.574,-0.019,0.265,0.000,1,1,1,1,-0.002,-0.004,0.033,-0.190,0.003,0.003,0.000,0.000,0.190,0.003,0.000,0
20260703_203136,case01_baseline_boxes,6,294.5,1.000,22.350,485.103,-1.437,752.757,-10.602,0.006,0.660,38.243,-0.078,-0.008,-0.058,0.074,-0.063,-0.008,0.190,0.029,-86.365,0.512,0.013,-0.314,-0.008,-0.005,0.001,0.004,-0.002,-0.002,-0.572,-0.019,0.264,0.000,1,1,1,1,-0.002,-0.004,0.032,-0.186,0.002,0.002,0.000,0.000,0.186,0.002,0.000,0
20260703_203136,case01_baseline_boxes,6,294.5,1.000,22.466,483.871,-1.437,752.833,-10.611,0.005,0.652,38.273,-0.090,-0.011,-0.076,0.085,-0.081,-0.010,0.241,0.029,-86.401,0.509,0.006,-0.353,-0.007,-0.005,0.000,0.008,-0.002,-0.002,-0.588,-0.020,0.263,0.000,1,1,1,1,-0.002,-0.004,0.032,-0.182,0.003,0.003,0.000,0.000,0.182,0.003,0.000,0
20260703_203136,case01_baseline_boxes,6,294.5,1.000,22.574,482.723,-1.436,752.903,-10.646,0.004,0.647,38.395,-0.344,-0.010,-0.056,0.339,-0.078,-0.009,0.284,0.029,-86.434,0.422,-0.001,-0.336,-0.006,-0.006,0.000,0.009,-0.009,0.001,-0.587,-0.020,0.266,0.000,1,1,1,1,0.001,0.004,0.040,0.221,0.003,0.003,0.000,0.000,0.221,0.003,0.000,0
20260703_203136,case01_baseline_boxes,6,294.5,1.000,22.674,481.659,-1.436,752.968,-10.652,0.003,0.639,38.417,-0.065,-0.009,-0.074,0.060,-0.077,-0.008,0.317,0.029,-86.466,0.339,-0.006,-0.320,-0.005,-0.006,0.000,0.009,-0.002,-0.001,-0.639,-0.019,0.265,0.000,1,1,1,1,0.001,0.004,0.040,0.218,0.004,0.004,0.000,0.000,0.218,0.004,0.000,0
20260703_203136,case01_baseline_boxes,6,294.5,1.000,22.786,480.464,-1.435,753.039,-10.633,0.003,0.630,38.347,0.189,-0.009,-0.098,-0.194,-0.086,-0.009,0.349,0.028,-86.503,0.314,-0.009,-0.367,-0.004,-0.005,0.000,0.011,0.006,-0.003,-0.639,-0.019,0.260,0.000,1,1,1,1,-0.002,-0.004,0.032,-0.173,0.003,0.003,0.000,0.000,0.173,0.003,0.000,0
20260703_203136,case01_baseline_boxes,6,294.5,1.000,22.902,479.230,-1.435,753.111,-10.641,0.002,0.620,38.372,-0.075,-0.009,-0.091,0.069,-0.096,-0.008,0.373,0.027,-86.541,0.244,-0.010,-0.385,-0.003,-0.006,0.000,0.013,-0.001,-0.001,-0.650,-0.020,0.259,0.000,1,1,1,1,-0.002,-0.004,0.031,-0.171,0.003,0.003,0.000,0.000,0.171,0.003,0.000,0
20260703_203136,case01_baseline_boxes,6,294.5,1.000,23.006,478.121,-1.435,753.175,-10.647,0.001,0.613,38.392,-0.060,-0.007,-0.076,0.055,-0.080,-0.006,0.388,0.026,-86.576,0.150,-0.008,-0.350,-0.002,-0.006,0.000,0.011,-0.001,0.000,-0.634,-0.021,0.259,0.000,1,1,1,1,-0.002,-0.004,0.031,-0.170,0.003,0.003,0.000,0.000,0.170,0.003,0.000,0
20260703_203136,case01_baseline_boxes,6,294.5,1.000,23.110,477.012,-1.435,753.239,-10.678,0.000,0.606,38.504,-0.314,-0.007,-0.069,0.310,-0.088,-0.006,0.397,0.025,-86.612,0.084,-0.006,-0.352,-0.001,-0.006,0.000,0.012,-0.007,0.002,-0.630,-0.021,0.261,0.000,1,1,1,1,0.001,0.003,0.039,0.211,0.003,0.003,0.000,0.000,0.211,0.003,0.000,0
20260703_203136,case01_baseline_boxes,6,294.5,1.000,23.246,475.566,-1.435,753.320,-10.660,0.000,0.594,38.436,0.181,-0.008,-0.118,-0.188,-0.108,-0.007,0.398,0.025,-86.658,0.016,-0.004,-0.466,0.000,-0.006,0.000,0.012,0.006,-0.003,-0.651,-0.020,0.257,0.000,1,1,1,1,-0.002,-0.004,0.031,-0.170,0.003,0.003,0.000,0.000,0.170,0.003,0.000,0
20260703_203136,case01_baseline_boxes,6,294.5,1.000,23.354,474.412,-1.435,753.384,-10.691,-0.001,0.587,38.546,-0.309,-0.006,-0.068,0.305,-0.086,-0.005,0.392,0.025,-86.696,-0.057,-0.001,-0.373,0.001,-0.006,0.000,0.010,-0.007,0.002,-0.646,-0.022,0.260,0.000,1,1,1,1,0.001,0.003,0.039,0.211,0.004,0.004,0.000,0.000,0.211,0.004,0.000,0
20260703_203136,case01_baseline_boxes,6,294.5,1.000,23.458,473.298,-1.435,753.445,-10.696,-0.002,0.580,38.563,-0.051,-0.005,-0.076,0.046,-0.079,-0.004,0.382,0.025,-86.732,-0.107,0.001,-0.363,0.002,-0.006,0.000,0.008,0.000,0.000,-0.626,-0.021,0.259,0.000,1,1,1,1,0.001,0.003,0.039,0.212,0.003,0.003,0.000,0.000,0.212,0.003,0.000,0
20260703_203136,case01_baseline_boxes,6,294.5,1.000,23.558,472.227,-1.435,753.503,-10.701,-0.002,0.572,38.579,-0.049,-0.005,-0.073,0.045,-0.076,-0.004,0.367,0.025,-86.767,-0.143,0.001,-0.348,0.003,-0.006,0.000,0.006,0.000,0.000,-0.610,-0.020,0.258,0.000,1,1,1,1,0.001,0.003,0.039,0.213,0.003,0.003,0.000,0.000,0.213,0.003,0.000,0
20260703_203136,case01_baseline_boxes,6,294.5,1.000,23.670,471.036,-1.435,753.566,-10.681,-0.002,0.563,38.503,0.206,-0.005,-0.096,-0.211,-0.085,-0.004,0.348,0.025,-86.805,-0.199,0.001,-0.385,0.003,-0.006,0.000,0.005,0.007,-0.003,-0.603,-0.020,0.254,0.000,1,1,1,1,-0.002,-0.004,0.031,-0.174,0.002,0.002,0.000,0.000,0.174,0.002,0.000,0
20260703_203136,case01_baseline_boxes,6,294.5,1.000,23.778,469.880,-1.436,753.626,-10.712,-0.003,0.557,38.613,-0.310,-0.003,-0.061,0.306,-0.078,-0.003,0.325,0.025,-86.843,-0.223,0.002,-0.377,0.004,-0.006,0.000,0.004,-0.007,0.002,-0.599,-0.020,0.257,0.000,1,1,1,1,0.001,0.004,0.039,0.217,0.003,0.003,0.000,0.000,0.217,0.003,0.000,0
20260703_203136,case01_baseline_boxes,6,294.5,1.000,23.878,468.808,-1.436,753.682,-10.716,-0.003,0.550,38.628,-0.045,-0.002,-0.070,0.041,-0.072,-0.002,0.303,0.025,-86.878,-0.225,0.000,-0.348,0.004,-0.006,0.000,0.002,0.000,0.000,-0.647,-0.022,0.257,0.000,1,1,1,1,0.001,0.004,0.039,0.219,0.003,0.003,0.000,0.000,0.219,0.003,0.000,0
20260703_203136,case01_baseline_boxes,6,294.5,1.000,23.986,467.653,-1.436,753.741,-10.694,-0.003,0.541,38.547,0.221,-0.001,-0.088,-0.225,-0.076,-0.001,0.277,0.025,-86.915,-0.253,0.000,-0.374,0.004,-0.006,0.000,0.001,0.007,-0.003,-0.640,-0.022,0.252,0.000,1,1,1,1,-0.002,-0.004,0.031,-0.180,0.003,0.003,0.000,0.000,0.180,0.003,0.000,0
20260703_203136,case01_baseline_boxes,6,294.5,1.000,24.090,466.538,-1.437,753.797,-10.725,-0.003,0.535,38.659,-0.314,0.000,-0.056,0.310,-0.072,0.001,0.253,0.025,-86.951,-0.246,-0.001,-0.361,0.004,-0.006,0.000,0.000,-0.008,0.002,-0.638,-0.021,0.255,0.000,1,1,1,1,0.001,0.004,0.039,0.223,0.003,0.003,0.000,0.000,0.223,0.003,0.000,0
20260703_203136,case01_baseline_boxes,6,294.5,1.000,24.202,465.336,-1.437,753.857,-10.702,-0.003,0.527,38.575,0.230,0.001,-0.085,-0.234,-0.072,0.001,0.227,0.025,-86.991,-0.260,-0.001,-0.393,0.004,-0.006,0.000,-0.002,0.007,-0.002,-0.633,-0.021,0.251,0.000,1,1,1,1,-0.002,-0.004,0.031,-0.184,0.003,0.003,0.000,0.000,0.184,0.003,0.000,0
20260703_203136,case01_baseline_boxes,6,294.5,1.000,24.310,464.177,-1.437,753.913,-10.734,-0.003,0.521,38.688,-0.316,0.002,-0.053,0.313,-0.069,0.003,0.203,0.025,-87.028,-0.237,-0.002,-0.376,0.004,-0.006,0.000,-0.002,-0.008,0.003,-0.629,-0.021,0.254,0.000,1,1,1,1,0.001,0.004,0.039,0.226,0.003,0.003,0.000,0.000,0.226,0.003,0.000,0
20260703_203136,case01_baseline_boxes,6,294.5,1.000,24.414,463.064,-1.438,753.967,-10.738,-0.003,0.515,38.700,-0.037,0.003,-0.060,0.033,-0.061,0.003,0.182,0.025,-87.065,-0.208,-0.002,-0.365,0.003,-0.006,0.000,-0.003,0.000,0.000,-0.618,-0.021,0.254,0.000,1,1,1,1,0.001,0.004,0.039,0.228,0.003,0.003,0.000,0.000,0.228,0.003,0.000,0
20260703_203136,case01_baseline_boxes,6,294.5,1.000,24.518,461.948,-1.438,754.020,-10.741,-0.002,0.510,38.711,-0.035,0.003,-0.060,0.032,-0.062,0.003,0.164,0.025,-87.101,-0.185,-0.001,-0.366,0.003,-0.007,0.000,-0.004,0.000,0.000,-0.608,-0.020,0.253,0.000,1,1,1,1,0.001,0.004,0.039,0.229,0.003,0.003,0.000,0.000,0.229,0.003,0.000,0
20260703_203136,case01_baseline_boxes,6,294.5,1.000,24.622,460.834,-1.438,754.073,-10.717,-0.002,0.501,38.622,0.244,0.004,-0.081,-0.248,-0.069,0.004,0.148,0.025,-87.138,-0.158,-0.001,-0.365,0.002,-0.006,0.000,-0.005,0.007,-0.002,-0.668,-0.021,0.249,0.000,1,1,1,1,-0.002,-0.004,0.031,-0.189,0.003,0.003,0.000,0.000,0.189,0.003,0.000,0
20260703_203136,case01_baseline_boxes,6,294.5,1.000,24.726,459.715,-1.438,754.125,-10.720,-0.001,0.495,38.633,-0.032,0.004,-0.059,0.029,-0.060,0.004,0.135,0.024,-87.175,-0.129,-0.001,-0.369,0.002,-0.006,0.000,-0.005,0.000,0.000,-0.661,-0.022,0.248,0.000,1,1,1,1,-0.002,-0.004,0.031,-0.189,0.003,0.003,0.000,0.000,0.189,0.003,0.000,0
20260703_203136,case01_baseline_boxes,6,294.5,1.000,24.838,458.517,-1.438,754.180,-10.752,-0.001,0.490,38.746,-0.317,0.005,-0.053,0.314,-0.068,0.005,0.125,0.024,-87.215,-0.103,0.000,-0.402,0.001,-0.007,0.000,-0.005,-0.009,0.003,-0.666,-0.022,0.252,0.000,1,1,1,1,0.001,0.004,0.039,0.230,0.003,0.003,0.000,0.000,0.230,0.003,0.000,0
20260703_203136,case01_baseline_boxes,6,294.5,1.000,24.942,457.400,-1.438,754.231,-10.727,-0.001,0.482,38.654,0.250,0.004,-0.083,-0.254,-0.071,0.004,0.118,0.024,-87.253,-0.064,0.000,-0.379,0.001,-0.006,0.000,-0.006,0.007,-0.002,-0.667,-0.022,0.247,0.000,1,1,1,1,-0.002,-0.004,0.031,-0.190,0.003,0.003,0.000,0.000,0.190,0.003,0.000,0
20260703_203136,case01_baseline_boxes,6,294.5,1.000,25.054,456.193,-1.438,754.285,-10.758,0.000,0.476,38.767,-0.315,0.004,-0.055,0.312,-0.070,0.005,0.115,0.024,-87.294,-0.034,0.000,-0.414,0.000,-0.007,0.000,-0.005,-0.009,0.003,-0.669,-0.023,0.251,0.000,1,1,1,1,0.002,0.004,0.039,0.230,0.003,0.003,0.000,0.000,0.230,0.003,0.000,0
20260703_203136,case01_baseline_boxes,6,294.5,1.000,25.154,455.117,-1.438,754.332,-10.761,0.000,0.470,38.776,-0.028,0.003,-0.064,0.025,-0.065,0.004,0.115,0.024,-87.332,-0.002,0.000,-0.376,0.000,-0.007,0.000,-0.005,-0.001,0.000,-0.663,-0.022,0.251,0.000,1,1,1,1,0.001,0.004,0.039,0.229,0.003,0.003,0.000,0.000,0.229,0.003,0.000,0
20260703_203136,case01_baseline_boxes,6,294.5,1.000,25.258,453.999,-1.438,754.380,-10.764,0.001,0.464,38.785,-0.027,0.003,-0.064,0.024,-0.066,0.003,0.117,0.024,-87.371,0.025,0.001,-0.395,-0.001,-0.007,0.000,-0.004,-0.001,0.000,-0.655,-0.022,0.250,0.000,1,1,1,1,0.001,0.004,0.038,0.229,0.003,0.003,0.000,0.000,0.229,0.003,0.000,0
20260703_203136,case01_baseline_boxes,6,294.5,1.000,25.366,452.843,-1.438,754.430,-10.738,0.001,0.455,38.693,0.251,0.003,-0.087,-0.255,-0.076,0.003,0.122,0.024,-87.412,0.052,0.000,-0.411,-0.001,-0.006,0.000,-0.004,0.007,-0.002,-0.661,-0.022,0.246,0.000,1,1,1,1,-0.002,-0.004,0.030,-0.188,0.002,0.002,0.000,0.000,0.188,0.002,0.000,0
20260703_203136,case01_baseline_boxes,6,294.5,1.000,25.470,451.723,-1.438,754.477,-10.769,0.001,0.448,38.802,-0.307,0.003,-0.064,0.304,-0.078,0.003,0.130,0.025,-87.453,0.072,0.000,-0.403,-0.001,-0.007,0.000,-0.003,-0.009,0.003,-0.733,-0.022,0.249,0.000,1,1,1,1,0.001,0.004,0.038,0.227,0.004,0.004,0.000,0.000,0.227,0.004,0.000,0
20260703_203136,case01_baseline_boxes,6,294.5,1.000,25.574,450.605,-1.438,754.523,-10.772,0.001,0.441,38.810,-0.024,0.002,-0.071,0.021,-0.072,0.002,0.138,0.025,-87.494,0.089,0.001,-0.411,-0.002,-0.007,0.000,-0.002,-0.001,0.000,-0.725,-0.024,0.249,0.000,1,1,1,1,0.001,0.004,0.038,0.226,0.004,0.004,0.000,0.000,0.226,0.004,0.000,0
20260703_203136,case01_baseline_boxes,6,294.5,1.000,25.678,449.484,-1.438,754.568,-10.774,0.001,0.434,38.817,-0.023,0.001,-0.074,0.020,-0.075,0.002,0.149,0.025,-87.536,0.103,0.001,-0.419,-0.002,-0.007,0.000,-0.002,-0.001,0.000,-0.718,-0.024,0.249,0.000,1,1,1,1,0.001,0.004,0.038,0.225,0.003,0.004,0.000,0.000,0.225,0.004,0.000,0
20260703_203136,case01_baseline_boxes,6,294.5,1.000,25.790,448.279,-1.438,754.617,-10.777,0.001,0.425,38.826,-0.027,0.001,-0.091,0.023,-0.093,0.001,0.161,0.025,-87.581,0.122,0.000,-0.455,-0.002,-0.008,0.000,-0.001,-0.001,0.000,-0.738,-0.025,0.248,0.000,1,1,1,1,0.001,0.004,0.038,0.223,0.004,0.004,0.000,0.000,0.223,0.004,0.000,0
20260703_203136,case01_baseline_boxes,6,294.5,1.000,25.902,447.072,-1.438,754.664,-10.752,0.001,0.415,38.735,0.247,0.000,-0.099,-0.251,-0.088,0.000,0.174,0.025,-87.628,0.128,0.001,-0.467,-0.002,-0.007,0.000,-0.001,0.007,-0.002,-0.744,-0.025,0.244,0.000,1,1,1,1,-0.002,-0.004,0.030,-0.182,0.003,0.003,0.001,0.001,0.182,0.003,0.000,0
20260703_203136,case01_baseline_boxes,6,294.5,1.000,26.010,445.916,-1.438,754.708,-10.754,0.001,0.407,38.742,-0.023,0.000,-0.080,0.019,-0.081,0.000,0.186,0.025,-87.673,0.124,0.000,-0.451,-0.002,-0.007,0.000,0.000,-0.001,0.000,-0.738,-0.025,0.244,0.000,1,1,1,1,-0.002,-0.004,0.030,-0.181,0.003,0.003,0.001,0.001,0.181,0.003,0.000,0
20260703_203136,case01_baseline_boxes,6,294.5,1.000,26.117,444.757,-1.437,754.751,-10.783,0.001,0.399,38.846,-0.291,0.000,-0.078,0.288,-0.090,0.000,0.198,0.025,-87.719,0.121,0.001,-0.461,-0.002,-0.008,0.000,0.001,-0.008,0.002,-0.743,-0.025,0.247,0.000,1,1,1,1,0.001,0.004,0.038,0.219,0.003,0.004,0.000,0.000,0.219,0.004,0.000,0
20260703_203136,case01_baseline_boxes,6,294.5,1.000,26.226,443.587,-1.437,754.794,-10.759,0.001,0.389,38.757,0.244,-0.001,-0.106,-0.248,-0.096,-0.001,0.210,0.025,-87.766,0.116,0.000,-0.469,-0.002,-0.007,0.000,0.001,0.006,-0.002,-0.748,-0.025,0.243,0.000,1,1,1,1,-0.002,-0.004,0.030,-0.179,0.003,0.003,0.001,0.001,0.179,0.003,0.000,0
20260703_203136,case01_baseline_boxes,6,294.5,1.000,26.338,442.377,-1.437,754.837,-10.787,0.001,0.380,38.859,-0.286,-0.001,-0.084,0.283,-0.095,-0.001,0.221,0.025,-87.815,0.111,0.000,-0.494,-0.002,-0.008,0.000,0.002,-0.008,0.002,-0.754,-0.025,0.247,0.000,1,1,1,1,0.001,0.004,0.037,0.217,0.003,0.003,0.000,0.000,0.217,0.003,0.000,0
20260703_203136,case01_baseline_boxes,6,294.5,1.000,26.446,441.219,-1.437,754.877,-10.763,0.001,0.369,38.770,0.242,-0.002,-0.107,-0.246,-0.098,-0.001,0.230,0.025,-87.863,0.094,0.000,-0.477,-0.001,-0.007,0.000,0.002,0.006,-0.002,-0.759,-0.026,0.243,0.000,1,1,1,1,-0.002,-0.004,0.030,-0.177,0.003,0.003,0.001,0.001,0.177,0.003,0.000,0
20260703_203136,case01_baseline_boxes,6,294.5,1.000,26.558,440.008,-1.437,754.918,-10.791,0.001,0.361,38.871,-0.282,-0.002,-0.088,0.278,-0.098,-0.001,0.239,0.025,-87.914,0.083,0.000,-0.506,-0.001,-0.008,0.000,0.003,-0.008,0.002,-0.766,-0.026,0.246,0.000,1,1,1,1,0.001,0.004,0.037,0.215,0.003,0.003,0.000,0.000,0.215,0.003,0.000,0
20260703_203136,case01_baseline_boxes,6,294.5,1.000,26.666,438.847,-1.437,754.956,-10.767,0.001,0.349,38.782,0.241,-0.002,-0.111,-0.245,-0.102,-0.002,0.245,0.025,-87.963,0.065,0.000,-0.490,-0.001,-0.008,0.000,0.002,0.006,-0.002,-0.771,-0.026,0.242,0.000,1,1,1,1,-0.002,-0.004,0.030,-0.175,0.003,0.003,0.001,0.001,0.175,0.003,0.000,0
20260703_203136,case01_baseline_boxes,6,294.5,1.000,26.770,437.727,-1.437,754.992,-10.769,0.000,0.340,38.787,-0.017,-0.002,-0.093,0.014,-0.094,-0.001,0.250,0.025,-88.011,0.047,0.000,-0.479,-0.001,-0.008,0.000,0.002,-0.001,0.000,-0.763,-0.026,0.242,0.000,1,1,1,1,-0.002,-0.004,0.030,-0.175,0.003,0.003,0.001,0.001,0.175,0.003,0.000,0
20260703_203136,case01_baseline_boxes,6,294.5,1.000,26.870,436.648,-1.437,755.026,-10.771,0.000,0.331,38.792,-0.016,-0.002,-0.094,0.013,-0.094,-0.001,0.253,0.025,-88.057,0.032,0.000,-0.466,0.000,-0.008,0.000,0.002,-0.001,0.000,-0.828,-0.025,0.242,0.000,1,1,1,1,-0.002,-0.004,0.030,-0.175,0.004,0.004,0.001,0.001,0.175,0.004,0.000,0
20260703_203136,case01_baseline_boxes,6,294.5,1.000,26.982,435.437,-1.437,755.062,-10.772,0.000,0.320,38.798,-0.019,-0.002,-0.112,0.015,-0.112,-0.002,0.255,0.025,-88.110,0.020,0.000,-0.529,0.000,-0.008,0.000,0.003,-0.001,0.000,-0.775,-0.026,0.241,0.000,1,1,1,1,-0.002,-0.004,0.030,-0.174,0.003,0.003,0.001,0.001,0.174,0.003,0.000,0
20260703_203136,case01_baseline_boxes,6,294.5,1.000,27.090,434.276,-1.437,755.096,-10.774,0.000,0.310,38.802,-0.015,-0.002,-0.096,0.012,-0.096,-0.001,0.255,0.025,-88.161,0.002,-0.001,-0.509,0.000,-0.008,0.000,0.002,-0.001,0.000,-0.840,-0.026,0.241,0.000,1,1,1,1,-0.002,-0.004,0.030,-0.174,0.004,0.004,0.001,0.001,0.174,0.004,0.000,0
20260703_203136,case01_baseline_boxes,6,294.5,1.000,27.202,433.067,-1.437,755.130,-10.776,0.000,0.299,38.807,-0.017,-0.002,-0.113,0.013,-0.114,-0.001,0.254,0.025,-88.215,-0.010,0.000,-0.539,0.000,-0.008,0.000,0.002,-0.001,0.000,-0.789,-0.027,0.241,0.000,1,1,1,1,-0.002,-0.004,0.030,-0.175,0.003,0.003,0.001,0.001,0.175,0.003,0.000,0
20260703_203136,case01_baseline_boxes,6,294.5,1.000,27.302,431.985,-1.437,755.160,-10.777,0.000,0.289,38.811,-0.014,-0.001,-0.098,0.011,-0.098,-0.001,0.252,0.025,-88.263,-0.020,0.000,-0.485,0.000,-0.008,0.000,0.002,-0.001,0.000,-0.859,-0.026,0.241,0.000,1,1,1,1,-0.002,-0.004,0.030,-0.175,0.004,0.004,0.001,0.001,0.175,0.004,0.000,0
20260703_203136,case01_baseline_boxes,6,294.5,1.000,27.402,430.904,-1.437,755.188,-10.778,0.000,0.279,38.815,-0.013,-0.001,-0.097,0.010,-0.097,-0.001,0.249,0.025,-88.312,-0.031,0.000,-0.490,0.001,-0.008,0.000,0.001,-0.001,0.000,-0.851,-0.029,0.241,0.000,1,1,1,1,-0.002,-0.004,0.030,-0.175,0.004,0.004,0.001,0.001,0.175,0.004,0.000,0
20260703_203136,case01_baseline_boxes,6,294.5,1.000,27.510,429.742,-1.437,755.218,-10.779,-0.001,0.270,38.818,-0.012,-0.001,-0.090,0.009,-0.090,0.000,0.245,0.025,-88.365,-0.041,-0.001,-0.526,0.001,-0.008,0.000,0.001,0.001,0.000,-0.844,-0.026,0.240,0.000,1,1,1,1,-0.002,-0.004,0.030,-0.175,0.004,0.004,0.001,0.001,0.175,0.004,0.000,0
20260703_203136,case01_baseline_boxes,6,294.5,1.000,27.614,428.620,-1.437,755.246,-10.807,-0.001,0.262,38.916,-0.274,-0.001,-0.086,0.271,-0.093,0.000,0.240,0.025,-88.415,-0.046,0.000,-0.503,0.001,-0.009,0.000,0.001,-0.006,0.002,-0.791,-0.027,0.244,0.000,1,1,1,1,0.001,0.004,0.037,0.214,0.003,0.003,0.000,0.000,0.214,0.003,0.000,0
20260703_203136,case01_baseline_boxes,6,294.5,1.000,27.722,427.453,-1.437,755.273,-10.782,-0.001,0.251,38.825,0.249,-0.001,-0.109,-0.252,-0.102,0.000,0.235,0.025,-88.467,-0.053,0.000,-0.518,0.001,-0.008,0.000,0.000,0.007,-0.002,-0.813,-0.027,0.240,0.000,1,1,1,1,-0.002,-0.004,0.030,-0.176,0.003,0.003,0.001,0.001,0.176,0.003,0.000,0
20260703_203136,case01_baseline_boxes,6,294.5,1.000,27.826,426.333,-1.437,755.299,-10.783,-0.001,0.241,38.828,-0.011,0.000,-0.096,0.008,-0.096,0.000,0.230,0.024,-88.517,-0.054,-0.001,-0.499,0.001,-0.008,0.000,0.000,-0.001,0.000,-0.819,-0.028,0.240,0.000,1,1,1,1,-0.002,-0.004,0.030,-0.177,0.003,0.003,0.001,0.001,0.177,0.003,0.000,0
20260703_203136,case01_baseline_boxes,6,294.5,1.000,27.938,425.121,-1.437,755.325,-10.810,-0.001,0.231,38.926,-0.275,0.000,-0.102,0.272,-0.109,0.001,0.224,0.024,-88.572,-0.059,0.000,-0.550,0.001,-0.009,0.000,0.000,-0.009,0.002,-0.843,-0.028,0.243,0.000,1,1,1,1,0.001,0.004,0.037,0.216,0.004,0.004,0.000,0.000,0.216,0.004,0.000,0
20260703_203136,case01_baseline_boxes,6,294.5,1.000,28.050,423.909,-1.437,755.351,-10.812,-0.001,0.219,38.930,-0.012,0.000,-0.124,0.009,-0.124,0.001,0.218,0.024,-88.628,-0.057,-0.001,-0.562,0.001,-0.009,0.000,0.000,-0.003,0.000,-0.881,-0.030,0.243,0.000,1,1,1,1,0.001,0.004,0.037,0.216,0.004,0.004,0.000,0.000,0.216,0.004,0.000,0
20260703_203136,case01_baseline_boxes,6,294.5,1.000,28.162,422.702,-1.437,755.374,-10.786,-0.001,0.206,38.838,0.254,0.000,-0.121,-0.256,-0.115,0.001,0.213,0.024,-88.686,-0.053,0.001,-0.577,0.001,-0.009,0.000,-0.001,0.005,-0.002,-0.900,-0.030,0.239,0.000,1,1,1,1,-0.002,-0.004,0.030,-0.178,0.004,0.004,0.001,0.001,0.178,0.004,0.000,0
20260703_203136,case01_baseline_boxes,6,294.5,1.000,28.270,421.538,-1.437,755.396,-10.787,-0.001,0.196,38.840,-0.009,0.001,-0.105,0.007,-0.105,0.001,0.208,0.024,-88.742,-0.047,0.000,-0.566,0.001,-0.009,0.000,-0.001,-0.002,0.000,-0.905,-0.030,0.239,0.000,1,1,1,1,-0.002,-0.004,0.030,-0.178,0.004,0.004,0.001,0.001,0.178,0.004,0.000,0
20260703_203136,case01_baseline_boxes,6,294.5,1.000,28.370,420.454,-1.437,755.415,-10.815,0.000,0.185,38.939,-0.275,0.001,-0.112,0.273,-0.117,0.002,0.204,0.024,-88.797,-0.038,0.000,-0.541,0.001,-0.010,0.000,-0.001,-0.010,0.002,-0.924,-0.031,0.243,0.000,1,1,1,1,0.001,0.004,0.037,0.217,0.004,0.004,0.001,0.001,0.217,0.004,0.000,0
20260703_203136,case01_baseline_boxes,6,294.5,1.000,28.478,419.291,-1.437,755.434,-10.816,0.000,0.174,38.941,-0.009,0.001,-0.108,0.006,-0.108,0.001,0.201,0.024,-88.856,-0.034,0.000,-0.593,0.000,-0.010,0.000,-0.001,-0.002,0.000,-0.927,-0.031,0.243,0.000,1,1,1,1,0.001,0.004,0.037,0.217,0.004,0.004,0.001,0.001,0.217,0.004,0.000,0
20260703_203136,case01_baseline_boxes,6,294.5,1.000,28.578,418.211,-1.437,755.451,-10.816,0.000,0.163,38.943,-0.008,0.001,-0.111,0.006,-0.111,0.001,0.199,0.024,-88.912,-0.024,0.000,-0.561,0.000,-0.010,0.000,-0.001,-0.002,0.000,-0.929,-0.031,0.243,0.000,1,1,1,1,0.001,0.004,0.037,0.217,0.004,0.004,0.001,0.001,0.217,0.004,0.000,0
20260703_203136,case01_baseline_boxes,6,294.5,1.000,28.678,417.130,-1.437,755.467,-10.817,0.000,0.152,38.946,-0.008,0.001,-0.111,0.006,-0.111,0.001,0.197,0.024,-88.969,-0.017,0.000,-0.572,0.000,-0.010,0.000,-0.001,-0.002,0.000,-0.928,-0.031,0.243,0.000,1,1,1,1,0.001,0.004,0.037,0.217,0.004,0.004,0.001,0.001,0.217,0.004,0.000,0
20260703_203136,case01_baseline_boxes,6,294.5,1.000,28.790,415.916,-1.437,755.483,-10.818,0.000,0.138,38.948,-0.009,0.001,-0.134,0.006,-0.134,0.002,0.196,0.024,-89.034,-0.012,0.000,-0.650,0.000,-0.011,0.000,-0.001,-0.002,0.000,-0.957,-0.032,0.242,0.000,1,1,1,1,0.001,0.004,0.037,0.217,0.004,0.004,0.001,0.001,0.217,0.004,0.000,0
20260703_203136,case01_baseline_boxes,6,294.5,1.000,28.890,414.835,-1.437,755.497,-10.819,0.000,0.127,38.950,-0.007,0.001,-0.115,0.005,-0.115,0.001,0.195,0.024,-89.093,-0.003,0.000,-0.589,0.000,-0.011,0.000,-0.001,-0.002,0.000,-0.955,-0.032,0.242,0.000,1,1,1,1,0.001,0.004,0.037,0.217,0.004,0.004,0.001,0.001,0.217,0.004,0.000,0
20260703_203136,case01_baseline_boxes,6,294.5,1.000,28.998,413.674,-1.437,755.510,-10.819,0.000,0.115,38.952,-0.006,0.001,-0.115,0.005,-0.115,0.001,0.196,0.024,-89.158,0.004,0.000,-0.643,0.000,-0.011,0.000,-0.001,-0.001,0.000,-1.036,-0.032,0.242,0.000,1,1,1,1,0.001,0.004,0.037,0.217,0.005,0.005,0.001,0.001,0.217,0.005,0.000,0
20260703_203136,case01_baseline_boxes,6,294.5,1.000,29.098,412.590,-1.437,755.521,-10.820,0.000,0.104,38.954,-0.006,0.001,-0.116,0.004,-0.116,0.001,0.197,0.024,-89.218,0.010,0.000,-0.606,0.000,-0.011,0.000,-0.001,-0.001,0.000,-1.035,-0.032,0.242,0.000,1,1,1,1,0.001,0.004,0.037,0.217,0.005,0.005,0.001,0.001,0.217,0.005,0.000,0
20260703_203136,case01_baseline_boxes,6,294.5,1.000,29.202,411.464,-1.437,755.531,-10.794,0.000,0.091,38.860,0.259,0.000,-0.134,-0.260,-0.130,0.001,0.198,0.024,-89.282,0.016,0.000,-0.636,0.000,-0.010,0.000,-0.001,0.006,-0.002,-1.052,-0.032,0.238,0.000,1,1,1,1,-0.002,-0.004,0.029,-0.178,0.004,0.005,0.001,0.001,0.178,0.005,0.000,0
20260703_203136,case01_baseline_boxes,6,294.5,1.000,29.310,410.302,-1.437,755.540,-10.795,0.000,0.079,38.862,-0.005,0.000,-0.116,0.004,-0.116,0.001,0.200,0.024,-89.348,0.022,-0.001,-0.662,0.000,-0.010,0.000,-0.001,-0.001,0.000,-1.046,-0.035,0.238,0.000,1,1,1,1,-0.002,-0.004,0.029,-0.178,0.004,0.004,0.001,0.001,0.178,0.004,0.000,0
20260703_203136,case01_baseline_boxes,6,294.5,1.000,29.416,409.156,-1.437,755.547,-10.822,0.000,0.066,38.958,-0.269,0.001,-0.129,0.268,-0.132,0.001,0.203,0.024,-89.414,0.026,0.000,-0.663,0.000,-0.011,0.000,0.000,-0.009,0.002,-1.062,-0.033,0.242,0.000,1,1,1,1,0.001,0.004,0.037,0.216,0.005,0.005,0.001,0.001,0.216,0.005,0.000,0
20260703_203136,case01_baseline_boxes,6,294.5,1.000,29.522,408.008,-1.437,755.554,-10.796,0.000,0.052,38.865,0.259,0.000,-0.136,-0.260,-0.133,0.001,0.206,0.024,-89.481,0.028,0.000,-0.668,-0.001,-0.011,0.000,-0.001,0.006,-0.002,-1.080,-0.033,0.238,0.000,1,1,1,1,-0.002,-0.004,0.029,-0.177,0.005,0.005,0.001,0.001,0.177,0.005,0.000,0
20260703_203136,case01_baseline_boxes,6,294.5,1.000,29.622,406.927,-1.437,755.558,-10.796,0.000,0.040,38.866,-0.004,0.000,-0.123,0.003,-0.123,0.001,0.209,0.024,-89.545,0.029,0.000,-0.635,-0.001,-0.011,0.000,0.000,-0.001,0.000,-1.079,-0.033,0.238,0.000,1,1,1,1,-0.002,-0.004,0.029,-0.177,0.005,0.005,0.001,0.001,0.177,0.005,0.000,0
20260703_203136,case01_baseline_boxes,6,294.5,1.000,29.722,405.845,-1.437,755.562,-10.797,0.000,0.028,38.868,-0.004,0.000,-0.124,0.003,-0.124,0.001,0.212,0.024,-89.609,0.030,0.000,-0.642,-0.001,-0.011,0.000,0.000,-0.001,0.000,-1.081,-0.036,0.238,0.000,1,1,1,1,-0.002,-0.004,0.029,-0.177,0.004,0.004,0.001,0.001,0.177,0.004,0.000,0
20260703_203136,case01_baseline_boxes,6,294.5,1.000,29.834,404.633,-1.437,755.564,-10.823,0.000,0.014,38.963,-0.266,0.000,-0.137,0.265,-0.139,0.001,0.215,0.024,-89.681,0.034,0.000,-0.728,-0.001,-0.012,0.000,0.000,-0.009,0.002,-1.101,-0.034,0.241,0.000,1,1,1,1,0.001,0.004,0.037,0.214,0.005,0.005,0.001,0.001,0.214,0.005,0.000,0
20260703_203136,case01_baseline_boxes,6,294.5,1.000,29.942,403.471,-1.437,755.565,-10.797,0.000,0.000,38.870,0.258,0.000,-0.144,-0.259,-0.143,0.000,0.218,0.024,-89.752,0.031,0.000,-0.707,-0.001,-0.011,0.000,0.000,0.006,-0.002,-1.122,-0.035,0.237,0.000,1,1,1,1,-0.002,-0.004,0.029,-0.176,0.005,0.005,0.001,0.001,0.176,0.005,0.000,0
20260703_203136,case01_baseline_boxes,6,294.5,1.000,30.042,402.388,-1.437,755.564,-10.798,0.000,-0.013,38.871,-0.003,0.000,-0.129,0.002,-0.129,0.000,0.221,0.024,-89.819,0.028,0.000,-0.666,0.000,-0.011,0.000,0.000,-0.001,0.000,-1.125,-0.035,0.237,0.000,1,1,1,1,-0.002,-0.004,0.029,-0.176,0.005,0.005,0.001,0.001,0.176,0.005,0.000,0
20260703_203136,case01_baseline_boxes,6,294.5,1.000,30.142,401.302,-1.437,755.562,-10.798,0.000,-0.026,38.872,-0.003,0.000,-0.131,0.002,-0.131,0.000,0.224,0.024,-89.886,0.026,0.000,-0.674,0.000,-0.011,0.000,0.000,-0.001,0.000,-1.128,-0.038,0.237,0.000,1,1,1,1,-0.002,-0.004,0.029,-0.175,0.005,0.005,0.001,0.001,0.175,0.005,0.000,0
20260703_203136,case01_baseline_boxes,6,294.5,1.000,30.250,400.137,-1.437,755.559,-10.824,0.000,-0.041,38.967,-0.262,0.000,-0.147,0.262,-0.147,0.001,0.226,0.024,-89.959,0.026,0.000,-0.732,0.000,-0.012,0.000,0.001,-0.009,0.002,-1.153,-0.036,0.241,0.000,1,1,1,1,0.001,0.004,0.037,0.213,0.005,0.005,0.001,0.001,0.213,0.005,0.000,0
20260703_203136,case01_baseline_boxes,6,294.5,1.000,30.358,398.973,-1.437,755.554,-10.824,0.000,-0.054,38.968,-0.001,0.000,-0.134,0.002,-0.134,0.000,0.229,0.024,-90.034,0.023,0.001,-0.742,0.000,-0.012,0.000,0.001,-0.001,0.000,-1.158,-0.039,0.241,0.000,1,1,1,1,0.001,0.004,0.037,0.213,0.005,0.005,0.001,0.001,0.213,0.005,0.000,0
20260703_203136,case01_baseline_boxes,6,294.5,1.000,30.458,397.891,-1.437,755.547,-10.824,0.000,-0.068,38.968,-0.001,0.000,-0.139,0.001,-0.139,0.000,0.230,0.024,-90.103,0.018,0.000,-0.698,0.000,-0.013,0.000,0.000,-0.002,0.000,-1.164,-0.039,0.241,0.000,1,1,1,1,0.001,0.004,0.037,0.212,0.005,0.005,0.001,0.001,0.212,0.005,0.000,0
20260703_203136,case01_baseline_boxes,6,294.5,1.000,30.558,396.808,-1.437,755.540,-10.824,0.000,-0.082,38.969,-0.001,0.000,-0.139,0.001,-0.139,0.000,0.232,0.024,-90.174,0.015,0.000,-0.708,0.000,-0.013,0.000,0.001,-0.001,0.000,-1.171,-0.039,0.241,0.000,1,1,1,1,0.001,0.004,0.037,0.212,0.005,0.005,0.001,0.001,0.212,0.005,0.000,0
20260703_203136,case01_baseline_boxes,6,294.5,1.000,30.670,395.600,-1.437,755.530,-10.799,0.000,-0.098,38.876,0.258,-0.001,-0.157,-0.258,-0.158,0.000,0.233,0.024,-90.254,0.013,-0.001,-0.798,0.000,-0.012,0.000,0.000,0.005,-0.002,-1.201,-0.040,0.237,0.000,1,1,1,1,-0.002,-0.004,0.029,-0.174,0.005,0.005,0.001,0.001,0.174,0.005,0.000,0
20260703_203136,case01_baseline_boxes,6,294.5,1.000,30.770,394.519,-1.437,755.519,-10.798,0.000,-0.112,38.877,0.000,0.000,-0.144,0.001,-0.144,0.000,0.234,0.024,-90.327,0.008,0.000,-0.728,0.000,-0.012,0.000,0.001,-0.002,0.000,-1.209,-0.041,0.237,0.000,1,1,1,1,-0.002,-0.004,0.029,-0.174,0.005,0.005,0.001,0.001,0.174,0.005,0.000,0
20260703_203136,case01_baseline_boxes,6,294.5,1.000,30.878,393.351,-1.437,755.506,-10.824,0.000,-0.129,38.970,-0.258,0.000,-0.161,0.259,-0.159,0.001,0.235,0.024,-90.407,0.006,0.001,-0.798,0.000,-0.013,0.000,0.001,-0.009,0.002,-1.239,-0.039,0.240,0.000,1,1,1,1,0.001,0.004,0.037,0.212,0.006,0.006,0.001,0.001,0.212,0.006,0.000,0
20260703_203136,case01_baseline_boxes,6,294.5,1.000,30.982,392.223,-1.437,755.492,-10.798,0.000,-0.145,38.878,0.259,-0.001,-0.161,-0.258,-0.163,0.000,0.235,0.024,-90.484,0.002,0.000,-0.779,0.000,-0.013,0.000,0.000,0.005,-0.002,-1.271,-0.039,0.237,0.000,1,1,1,1,-0.002,-0.004,0.029,-0.174,0.005,0.006,0.001,0.001,0.174,0.006,0.000,0
20260703_203136,case01_baseline_boxes,6,294.5,1.000,31.102,390.925,-1.437,755.473,-10.798,0.000,-0.163,38.878,0.002,-0.001,-0.180,0.000,-0.180,0.000,0.235,0.024,-90.576,0.000,-0.001,-0.912,0.000,-0.013,0.000,0.000,-0.002,0.000,-1.224,-0.041,0.237,0.000,1,1,1,1,-0.002,-0.004,0.029,-0.174,0.004,0.005,0.001,0.001,0.174,0.005,0.000,0
20260703_203136,case01_baseline_boxes,6,294.5,1.000,31.214,389.715,-1.437,755.454,-10.824,0.000,-0.180,38.971,-0.256,0.000,-0.170,0.258,-0.167,0.001,0.235,0.024,-90.662,-0.003,-0.001,-0.864,0.000,-0.014,0.000,0.001,-0.009,0.002,-1.256,-0.042,0.240,0.000,1,1,1,1,0.001,0.004,0.037,0.212,0.005,0.005,0.001,0.001,0.212,0.005,0.000,0
20260703_203136,case01_baseline_boxes,6,294.5,1.000,31.322,388.552,-1.437,755.434,-10.798,0.000,-0.196,38.878,0.261,0.000,-0.167,-0.259,-0.171,0.000,0.234,0.024,-90.746,-0.005,0.000,-0.844,0.000,-0.013,0.000,0.000,0.005,-0.002,-1.289,-0.043,0.236,0.000,1,1,1,1,-0.002,-0.004,0.029,-0.174,0.005,0.005,0.002,0.001,0.174,0.005,0.000,0
20260703_203136,case01_baseline_boxes,6,294.5,1.000,31.426,387.422,-1.437,755.413,-10.797,0.000,-0.212,38.878,0.003,0.000,-0.155,-0.001,-0.155,0.001,0.233,0.024,-90.829,-0.006,0.000,-0.828,0.000,-0.014,0.000,0.000,-0.002,0.000,-1.303,-0.044,0.236,0.000,1,1,1,1,-0.002,-0.004,0.029,-0.174,0.005,0.005,0.002,0.002,0.174,0.005,0.000,0
20260703_203136,case01_baseline_boxes,6,294.5,1.000,31.534,386.259,-1.437,755.389,-10.823,0.000,-0.230,38.972,-0.255,0.000,-0.177,0.258,-0.173,0.001,0.233,0.024,-90.916,-0.008,0.000,-0.864,0.000,-0.014,0.000,0.000,-0.009,0.002,-1.340,-0.042,0.240,0.000,1,1,1,1,0.001,0.004,0.037,0.212,0.006,0.006,0.001,0.001,0.212,0.006,0.000,0
20260703_203136,case01_baseline_boxes,6,294.5,1.000,31.634,385.177,-1.437,755.365,-10.823,0.000,-0.246,38.971,0.004,0.000,-0.160,-0.001,-0.160,0.001,0.232,0.024,-90.997,-0.007,0.000,-0.813,0.000,-0.015,0.000,0.000,-0.002,0.000,-1.358,-0.042,0.240,0.000,1,1,1,1,0.001,0.004,0.037,0.212,0.006,0.006,0.001,0.001,0.212,0.006,0.000,0
20260703_203136,case01_baseline_boxes,6,294.5,1.000,31.738,384.050,-1.437,755.339,-10.822,0.000,-0.262,38.971,0.004,0.000,-0.163,-0.001,-0.163,0.001,0.231,0.024,-91.083,-0.007,0.000,-0.860,0.000,-0.015,0.000,0.000,-0.002,0.000,-1.378,-0.046,0.240,0.000,1,1,1,1,0.001,0.004,0.037,0.212,0.006,0.006,0.001,0.001,0.212,0.006,0.000,0
20260703_203136,case01_baseline_boxes,6,294.5,1.000,31.846,382.885,-1.437,755.310,-10.796,0.000,-0.280,38.878,0.264,0.000,-0.185,-0.261,-0.190,0.001,0.230,0.024,-91.174,-0.007,0.000,-0.906,0.000,-0.015,0.000,0.000,0.003,-0.002,-1.421,-0.044,0.236,0.000,1,1,1,1,-0.002,-0.004,0.029,-0.175,0.006,0.006,0.002,0.002,0.175,0.006,0.000,0
20260703_203136,case01_baseline_boxes,6,294.5,1.000,31.946,381.803,-1.437,755.281,-10.795,0.000,-0.297,38.878,0.005,0.000,-0.171,-0.001,-0.171,0.001,0.230,0.024,-91.260,-0.005,0.000,-0.860,0.000,-0.015,0.000,0.000,-0.003,0.000,-1.439,-0.045,0.236,0.000,1,1,1,1,-0.002,-0.004,0.029,-0.175,0.006,0.006,0.002,0.002,0.175,0.006,0.000,0
20260703_203136,case01_baseline_boxes,6,294.5,1.000,32.058,380.591,-1.437,755.246,-10.821,0.000,-0.316,38.971,-0.253,0.000,-0.187,0.258,-0.181,0.001,0.229,0.024,-91.357,-0.005,0.001,-0.978,0.000,-0.016,0.000,0.000,-0.008,0.002,-1.370,-0.046,0.240,0.000,1,1,1,1,0.001,0.004,0.037,0.212,0.005,0.005,0.001,0.001,0.212,0.005,0.000,0
20260703_203136,case01_baseline_boxes,6,294.5,1.000,32.166,379.424,-1.437,755.211,-10.794,0.000,-0.334,38.877,0.266,0.000,-0.183,-0.261,-0.190,0.001,0.229,0.024,-91.452,-0.004,-0.001,-0.950,0.000,-0.015,0.000,0.000,0.005,-0.002,-1.412,-0.048,0.236,0.000,1,1,1,1,-0.002,-0.004,0.029,-0.175,0.005,0.005,0.002,0.002,0.175,0.005,0.000,0
20260703_203136,case01_baseline_boxes,6,294.5,1.000,32.270,378.299,-1.437,755.175,-10.819,0.000,-0.354,38.970,-0.252,0.000,-0.200,0.257,-0.193,0.001,0.229,0.024,-91.545,-0.002,0.000,-0.928,0.000,-0.016,0.000,0.000,-0.010,0.002,-1.460,-0.049,0.240,0.000,1,1,1,1,0.001,0.004,0.037,0.212,0.006,0.006,0.001,0.001,0.212,0.006,0.000,0
20260703_203136,case01_baseline_boxes,6,294.5,1.000,32.378,377.132,-1.437,755.136,-10.819,0.000,-0.372,38.970,0.007,0.000,-0.180,-0.002,-0.180,0.001,0.229,0.024,-91.643,0.000,0.000,-0.980,0.000,-0.016,0.000,0.000,-0.002,0.000,-1.486,-0.050,0.240,0.000,1,1,1,1,0.001,0.004,0.036,0.212,0.006,0.007,0.001,0.001,0.212,0.007,0.000,0
20260703_203136,case01_baseline_boxes,6,294.5,1.000,32.490,375.923,-1.437,755.093,-10.818,0.000,-0.394,38.969,0.009,0.000,-0.221,-0.003,-0.221,0.001,0.229,0.024,-91.746,0.002,-0.001,-1.032,0.000,-0.017,0.000,0.000,-0.003,0.000,-1.449,-0.049,0.240,0.000,1,1,1,1,0.001,0.004,0.037,0.212,0.005,0.006,0.002,0.002,0.212,0.006,0.000,0
20260703_203136,case01_baseline_boxes,6,294.5,1.000,32.602,374.711,-1.437,755.048,-10.791,0.000,-0.414,38.875,0.268,0.000,-0.192,-0.262,-0.201,0.001,0.229,0.024,-91.852,0.004,0.000,-1.057,0.000,-0.016,0.000,0.000,0.005,-0.002,-1.400,-0.047,0.236,0.000,1,1,1,1,-0.002,-0.004,0.029,-0.175,0.004,0.004,0.002,0.002,0.175,0.004,0.000,0
20260703_203136,case01_baseline_boxes,6,294.5,1.000,32.710,373.549,-1.437,755.003,-10.790,0.000,-0.430,38.875,0.008,0.000,-0.163,-0.002,-0.163,0.001,0.230,0.024,-91.953,0.005,-0.001,-1.006,0.000,-0.016,0.000,0.000,0.002,0.000,-1.430,-0.048,0.236,0.000,1,1,1,1,-0.002,-0.004,0.029,-0.175,0.005,0.005,0.002,0.002,0.175,0.005,0.000,0
20260703_203136,case01_baseline_boxes,6,294.5,1.000,32.822,372.339,-1.437,754.953,-10.789,0.000,-0.451,38.874,0.011,0.000,-0.215,-0.003,-0.215,0.001,0.231,0.024,-92.057,0.006,0.000,-1.044,0.000,-0.016,0.000,0.000,-0.001,0.000,-1.524,-0.048,0.236,0.000,1,1,1,1,-0.002,-0.004,0.029,-0.175,0.006,0.006,0.002,0.002,0.175,0.006,0.000,0
20260703_203136,case01_baseline_boxes,6,294.5,1.000,32.922,371.258,-1.437,754.907,-10.788,0.000,-0.470,38.873,0.010,0.000,-0.190,-0.003,-0.191,0.001,0.231,0.024,-92.151,0.007,0.000,-0.942,0.000,-0.016,0.000,0.000,-0.003,0.000,-1.574,-0.049,0.236,0.000,1,1,1,1,-0.002,-0.004,0.029,-0.175,0.007,0.007,0.002,0.002,0.175,0.007,0.000,0
20260703_203136,case01_baseline_boxes,6,294.5,1.000,33.030,370.091,-1.437,754.855,-10.813,0.000,-0.493,38.966,-0.247,0.000,-0.224,0.255,-0.214,0.001,0.232,0.024,-92.255,0.009,0.000,-1.039,0.000,-0.017,0.000,0.000,-0.011,0.002,-1.546,-0.052,0.239,0.000,1,1,1,1,0.001,0.004,0.036,0.212,0.006,0.006,0.002,0.002,0.212,0.006,0.000,0
20260703_203136,case01_baseline_boxes,6,294.5,1.000,33.130,369.011,-1.437,754.805,-10.811,0.000,-0.513,38.965,0.012,0.000,-0.204,-0.003,-0.204,0.001,0.233,0.024,-92.354,0.009,0.000,-0.988,0.000,-0.018,0.000,0.000,-0.004,0.000,-1.597,-0.054,0.239,0.000,1,1,1,1,0.001,0.004,0.036,0.212,0.007,0.007,0.002,0.002,0.212,0.007,0.000,0
20260703_203136,case01_baseline_boxes,6,294.5,1.000,33.238,367.848,-1.437,754.749,-10.810,0.000,-0.534,38.964,0.013,0.000,-0.211,-0.004,-0.212,0.001,0.234,0.024,-92.463,0.012,0.001,-1.095,0.000,-0.018,0.000,0.000,-0.005,0.000,-1.647,-0.055,0.239,0.000,1,1,1,1,0.001,0.004,0.036,0.212,0.007,0.007,0.002,0.002,0.212,0.007,0.000,0
20260703_203136,case01_baseline_boxes,6,294.5,1.000,33.342,366.721,-1.437,754.692,-10.783,0.000,-0.557,38.870,0.273,0.000,-0.224,-0.262,-0.236,0.001,0.235,0.024,-92.572,0.013,0.000,-1.091,0.000,-0.018,0.000,0.000,0.002,-0.002,-1.726,-0.058,0.236,0.000,1,1,1,1,-0.002,-0.004,0.029,-0.174,0.007,0.007,0.002,0.002,0.174,0.007,0.000,0
20260703_203136,case01_baseline_boxes,6,294.5,1.000,33.454,365.514,-1.437,754.628,-10.807,0.000,-0.582,38.962,-0.242,0.000,-0.251,0.254,-0.240,0.002,0.237,0.024,-92.693,0.015,0.000,-1.201,0.000,-0.019,0.000,0.000,-0.012,0.002,-1.684,-0.057,0.239,0.000,1,1,1,1,0.001,0.003,0.036,0.211,0.006,0.006,0.002,0.002,0.211,0.006,0.000,0
20260703_203136,case01_baseline_boxes,6,294.5,1.000,33.562,364.350,-1.437,754.564,-10.780,0.000,-0.605,38.868,0.274,0.000,-0.232,-0.262,-0.245,0.001,0.239,0.024,-92.811,0.016,0.000,-1.189,0.000,-0.019,0.000,0.000,0.002,-0.002,-1.759,-0.059,0.235,0.000,1,1,1,1,-0.002,-0.004,0.029,-0.174,0.006,0.007,0.002,0.002,0.174,0.007,0.000,0
20260703_203136,case01_baseline_boxes,6,294.5,1.000,33.662,363.271,-1.437,754.503,-10.778,0.000,-0.628,38.867,0.016,0.000,-0.226,-0.004,-0.227,0.001,0.240,0.024,-92.924,0.015,0.000,-1.129,0.000,-0.020,0.000,0.000,-0.004,0.000,-1.803,-0.061,0.235,0.000,1,1,1,1,-0.002,-0.004,0.029,-0.173,0.007,0.007,0.002,0.002,0.173,0.007,0.000,0
20260703_203136,case01_baseline_boxes,6,294.5,1.000,33.762,362.191,-1.437,754.439,-10.776,0.000,-0.651,38.866,0.017,0.000,-0.231,-0.005,-0.231,0.001,0.242,0.024,-93.040,0.016,0.000,-1.153,0.000,-0.020,0.000,0.000,-0.004,0.000,-1.849,-0.062,0.235,0.000,1,1,1,1,-0.002,-0.004,0.029,-0.173,0.007,0.007,0.002,0.002,0.173,0.007,0.000,0
20260703_203136,case01_baseline_boxes,6,294.5,1.000,33.874,360.982,-1.437,754.364,-10.800,0.000,-0.678,38.957,-0.236,0.000,-0.274,0.251,-0.261,0.001,0.244,0.024,-93.172,0.019,-0.001,-1.320,0.000,-0.021,0.000,0.000,-0.012,0.002,-1.932,-0.060,0.239,0.000,1,1,1,1,0.001,0.003,0.036,0.210,0.008,0.009,0.002,0.002,0.210,0.009,0.000,0
20260703_203136,case01_baseline_boxes,6,294.5,1.000,33.974,359.903,-1.437,754.295,-10.798,0.000,-0.702,38.956,0.019,0.000,-0.237,-0.005,-0.237,0.001,0.245,0.024,-93.292,0.017,0.000,-1.203,0.000,-0.022,0.000,0.000,-0.003,0.000,-1.843,-0.062,0.239,0.000,1,1,1,1,0.001,0.003,0.036,0.210,0.006,0.007,0.002,0.002,0.210,0.007,0.000,0
20260703_203136,case01_baseline_boxes,6,294.5,1.000,34.082,358.738,-1.437,754.218,-10.770,0.000,-0.727,38.862,0.277,0.000,-0.253,-0.262,-0.269,0.001,0.247,0.024,-93.424,0.018,0.000,-1.322,0.000,-0.021,0.000,0.000,0.003,-0.002,-1.921,-0.065,0.235,0.000,1,1,1,1,-0.002,-0.004,0.029,-0.173,0.007,0.007,0.003,0.003,0.173,0.007,0.000,0
20260703_203136,case01_baseline_boxes,6,294.5,1.000,34.194,357.531,-1.437,754.135,-10.794,0.000,-0.756,38.953,-0.233,0.000,-0.285,0.250,-0.270,0.001,0.249,0.024,-93.564,0.018,-0.001,-1.394,0.000,-0.022,0.000,0.000,-0.011,0.002,-2.003,-0.063,0.239,0.000,1,1,1,1,0.001,0.003,0.036,0.210,0.008,0.008,0.002,0.002,0.210,0.008,0.000,0
20260703_203136,case01_baseline_boxes,6,294.5,1.000,34.298,356.409,-1.437,754.055,-10.792,0.000,-0.780,38.951,0.022,0.000,-0.249,-0.006,-0.250,0.001,0.251,0.024,-93.695,0.017,0.000,-1.317,0.000,-0.023,0.000,0.000,-0.003,0.000,-2.058,-0.065,0.239,0.000,1,1,1,1,0.001,0.003,0.036,0.210,0.009,0.009,0.002,0.002,0.210,0.009,0.000,0
20260703_203136,case01_baseline_boxes,6,294.5,1.000,34.398,355.328,-1.437,753.976,-10.789,0.000,-0.806,38.949,0.023,0.000,-0.251,-0.006,-0.252,0.001,0.252,0.024,-93.824,0.016,0.000,-1.290,0.000,-0.023,0.000,0.000,-0.003,0.000,-1.972,-0.066,0.239,0.000,1,1,1,1,0.001,0.003,0.036,0.210,0.007,0.007,0.002,0.002,0.210,0.007,0.000,0
20260703_203136,case01_baseline_boxes,6,294.5,1.000,34.510,354.123,-1.437,753.884,-10.786,0.000,-0.837,38.948,0.029,0.000,-0.309,-0.007,-0.311,0.001,0.254,0.024,-93.970,0.016,-0.001,-1.458,0.000,-0.023,0.000,0.000,-0.004,0.000,-2.096,-0.066,0.239,0.000,1,1,1,1,0.001,0.003,0.036,0.209,0.009,0.009,0.003,0.002,0.209,0.009,0.000,0
20260703_203136,case01_baseline_boxes,6,294.5,1.000,34.622,352.918,-1.437,753.789,-10.758,0.000,-0.864,38.854,0.282,0.000,-0.272,-0.262,-0.291,0.001,0.255,0.024,-94.119,0.015,0.001,-1.486,0.000,-0.023,0.000,0.000,0.003,-0.002,-2.048,-0.069,0.235,0.000,1,1,1,1,-0.002,-0.004,0.029,-0.172,0.007,0.007,0.003,0.003,0.172,0.007,0.000,0
20260703_203136,case01_baseline_boxes,6,294.5,1.000,34.730,351.753,-1.437,753.694,-10.781,0.000,-0.895,38.944,-0.225,0.000,-0.315,0.247,-0.297,0.002,0.257,0.024,-94.265,0.015,0.000,-1.463,0.000,-0.024,0.000,0.000,-0.012,0.002,-2.149,-0.072,0.239,0.000,1,1,1,1,0.001,0.003,0.036,0.209,0.008,0.009,0.003,0.003,0.209,0.009,0.000,0
20260703_203136,case01_baseline_boxes,6,294.5,1.000,34.830,350.676,-1.437,753.603,-10.778,0.000,-0.923,38.942,0.028,0.000,-0.275,-0.007,-0.276,0.001,0.258,0.024,-94.403,0.012,0.000,-1.379,0.000,-0.025,0.000,0.000,-0.004,0.000,-2.218,-0.070,0.239,0.000,1,1,1,1,0.001,0.003,0.036,0.209,0.009,0.009,0.003,0.003,0.209,0.009,0.000,0
20260703_203136,case01_baseline_boxes,6,294.5,1.000,34.938,349.514,-1.437,753.502,-10.775,0.000,-0.950,38.940,0.029,0.000,-0.277,-0.007,-0.279,0.001,0.259,0.024,-94.555,0.014,0.001,-1.517,0.000,-0.025,0.000,0.000,-0.004,0.000,-2.144,-0.072,0.239,0.000,1,1,1,1,0.001,0.003,0.036,0.209,0.007,0.008,0.003,0.003,0.209,0.008,0.000,0
20260703_203136,case01_baseline_boxes,6,294.5,1.000,35.046,348.354,-1.437,753.398,-10.746,0.000,-0.980,38.846,0.287,0.000,-0.292,-0.262,-0.315,0.001,0.261,0.024,-94.709,0.012,0.000,-1.544,0.000,-0.025,0.000,0.000,0.002,-0.002,-2.250,-0.076,0.235,0.000,1,1,1,1,-0.002,-0.004,0.029,-0.171,0.008,0.008,0.003,0.003,0.171,0.008,0.000,0
20260703_203136,case01_baseline_boxes,6,294.5,1.000,35.146,347.278,-1.437,753.299,-10.743,0.000,-1.009,38.844,0.032,0.000,-0.289,-0.008,-0.291,0.001,0.262,0.024,-94.855,0.011,0.000,-1.457,0.000,-0.025,0.000,0.000,-0.005,0.000,-2.336,-0.069,0.235,0.000,1,1,1,1,-0.002,-0.004,0.029,-0.171,0.009,0.009,0.003,0.003,0.171,0.009,0.000,0
20260703_203136,case01_baseline_boxes,6,294.5,1.000,35.250,346.161,-1.437,753.192,-10.740,0.000,-1.035,38.843,0.030,0.000,-0.262,-0.007,-0.264,0.001,0.263,0.024,-95.007,0.010,0.000,-1.522,0.000,-0.025,0.000,0.000,0.001,0.000,-2.141,-0.072,0.235,0.000,1,1,1,1,-0.002,-0.004,0.029,-0.171,0.006,0.006,0.003,0.003,0.171,0.006,0.000,0
20260703_203136,case01_baseline_boxes,6,294.5,1.000,35.354,345.043,-1.437,753.083,-10.762,0.000,-1.068,38.932,-0.217,0.000,-0.329,0.245,-0.308,0.002,0.264,0.024,-95.159,0.010,0.000,-1.525,0.000,-0.026,0.000,0.000,-0.009,0.002,-2.275,-0.077,0.238,0.000,1,1,1,1,0.001,0.003,0.036,0.209,0.009,0.009,0.003,0.003,0.209,0.009,0.000,0
20260703_203136,case01_baseline_boxes,6,294.5,1.000,35.454,343.967,-1.437,752.975,-10.758,0.000,-1.098,38.930,0.036,0.000,-0.299,-0.008,-0.301,0.001,0.264,0.024,-95.308,0.007,0.000,-1.484,0.000,-0.027,0.000,0.000,-0.005,0.000,-2.390,-0.076,0.238,0.000,1,1,1,1,0.001,0.003,0.036,0.209,0.010,0.010,0.003,0.003,0.209,0.010,0.000,0
20260703_203136,case01_baseline_boxes,6,294.5,1.000,35.554,342.892,-1.437,752.864,-10.754,0.000,-1.128,38.927,0.038,0.000,-0.308,-0.009,-0.310,0.001,0.265,0.024,-95.459,0.007,0.000,-1.515,0.000,-0.027,0.000,0.000,-0.006,0.000,-2.365,-0.080,0.238,0.000,1,1,1,1,0.001,0.003,0.036,0.208,0.009,0.009,0.003,0.003,0.208,0.009,0.000,0
20260703_203136,case01_baseline_boxes,6,294.5,1.000,35.662,341.733,-1.437,752.740,-10.724,0.000,-1.161,38.833,0.298,0.000,-0.329,-0.264,-0.357,0.001,0.266,0.024,-95.627,0.008,0.000,-1.679,0.000,-0.027,0.000,0.000,-0.001,-0.002,-2.529,-0.085,0.235,0.000,1,1,1,1,-0.002,-0.004,0.029,-0.171,0.010,0.010,0.003,0.003,0.171,0.010,0.000,0
20260703_203136,case01_baseline_boxes,6,294.5,1.000,35.770,340.576,-1.437,752.613,-10.720,0.000,-1.195,38.831,0.044,0.000,-0.334,-0.010,-0.337,0.002,0.267,0.024,-95.800,0.010,0.000,-1.732,0.000,-0.028,0.000,0.000,-0.009,0.000,-2.508,-0.084,0.234,0.000,1,1,1,1,-0.002,-0.004,0.029,-0.171,0.009,0.009,0.004,0.003,0.171,0.009,0.000,0
20260703_203136,case01_baseline_boxes,6,294.5,1.000,35.870,339.501,-1.437,752.492,-10.715,0.000,-1.229,38.828,0.046,0.000,-0.343,-0.010,-0.346,0.002,0.268,0.024,-95.967,0.010,0.000,-1.664,0.000,-0.029,0.000,0.000,-0.009,0.000,-2.630,-0.089,0.234,0.000,1,1,1,1,-0.002,-0.004,0.029,-0.171,0.010,0.010,0.004,0.004,0.171,0.010,0.000,0
20260703_203136,case01_baseline_boxes,6,294.5,1.000,35.978,338.341,-1.437,752.356,-10.735,0.000,-1.270,38.916,-0.198,0.000,-0.414,0.241,-0.390,0.002,0.269,0.024,-96.152,0.012,0.001,-1.855,0.000,-0.031,0.000,0.000,-0.017,0.002,-2.810,-0.089,0.238,0.000,1,1,1,1,0.001,0.003,0.036,0.208,0.012,0.012,0.003,0.003,0.208,0.012,0.000,0
20260703_203136,case01_baseline_boxes,6,294.5,1.000,36.078,337.269,-1.437,752.227,-10.730,0.000,-1.306,38.913,0.051,0.000,-0.358,-0.012,-0.361,0.002,0.270,0.024,-96.329,0.013,0.000,-1.768,0.000,-0.032,0.000,0.000,-0.008,0.000,-2.768,-0.093,0.238,0.000,1,1,1,1,0.001,0.003,0.036,0.208,0.010,0.011,0.004,0.004,0.208,0.011,0.000,0
20260703_203136,case01_baseline_boxes,6,294.5,1.000,36.178,336.197,-1.437,752.095,-10.724,0.000,-1.343,38.910,0.054,0.000,-0.370,-0.012,-0.373,0.002,0.272,0.024,-96.511,0.015,0.000,-1.816,0.000,-0.032,0.000,0.000,-0.009,0.000,-2.900,-0.098,0.238,0.000,1,1,1,1,0.001,0.003,0.036,0.207,0.012,0.012,0.004,0.004,0.207,0.012,0.000,0
20260703_203136,case01_baseline_boxes,6,294.5,1.000,36.286,335.038,-1.436,751.947,-10.693,0.000,-1.381,38.815,0.313,0.000,-0.383,-0.266,-0.417,0.002,0.274,0.024,-96.713,0.019,0.000,-2.022,0.000,-0.033,0.000,0.000,-0.002,-0.002,-2.906,-0.098,0.234,0.000,1,1,1,1,-0.002,-0.003,0.029,-0.170,0.010,0.011,0.004,0.004,0.170,0.011,0.000,0
20260703_203136,case01_baseline_boxes,6,294.5,1.000,36.391,333.922,-1.436,751.801,-10.712,0.000,-1.427,38.902,-0.183,0.000,-0.458,0.237,-0.433,0.003,0.276,0.024,-96.913,0.020,0.000,-2.001,0.000,-0.034,0.000,-0.001,-0.017,0.002,-3.099,-0.098,0.238,0.000,1,1,1,1,0.001,0.003,0.036,0.207,0.013,0.013,0.004,0.004,0.207,0.013,0.000,0
20260703_203136,case01_baseline_boxes,6,294.5,1.000,36.494,332.819,-1.436,751.652,-10.705,0.000,-1.466,38.899,0.063,0.000,-0.391,-0.014,-0.396,0.002,0.278,0.024,-97.116,0.022,0.000,-2.031,0.000,-0.035,0.000,0.000,-0.008,0.000,-3.052,-0.103,0.238,0.000,1,1,1,1,0.001,0.003,0.036,0.207,0.011,0.012,0.004,0.004,0.207,0.012,0.000,0
20260703_203136,case01_baseline_boxes,6,294.5,1.000,36.594,331.746,-1.436,751.503,-10.699,0.000,-1.506,38.895,0.066,0.000,-0.402,-0.014,-0.407,0.002,0.281,0.024,-97.319,0.024,0.000,-2.023,0.000,-0.036,0.000,0.000,-0.008,0.000,-3.201,-0.101,0.238,0.000,1,1,1,1,0.001,0.003,0.036,0.206,0.013,0.013,0.004,0.004,0.206,0.013,0.000,0
20260703_203136,case01_baseline_boxes,6,294.5,1.000,36.706,330.548,-1.436,751.332,-10.666,0.000,-1.548,38.801,0.323,0.000,-0.412,-0.266,-0.451,0.002,0.283,0.024,-97.550,0.028,0.000,-2.311,0.000,-0.036,0.000,0.000,0.000,-0.002,-3.218,-0.108,0.234,0.000,1,1,1,1,-0.002,-0.003,0.029,-0.169,0.012,0.012,0.005,0.005,0.169,0.012,0.000,0
20260703_203136,case01_baseline_boxes,6,294.5,1.000,36.810,329.444,-1.436,751.169,-10.659,0.000,-1.591,38.797,0.075,0.000,-0.431,-0.016,-0.438,0.002,0.286,0.024,-97.768,0.028,-0.001,-2.186,0.000,-0.037,0.000,0.000,-0.011,0.000,-3.383,-0.107,0.234,0.000,1,1,1,1,-0.002,-0.003,0.029,-0.169,0.013,0.014,0.005,0.005,0.169,0.014,0.000,0
20260703_203136,case01_baseline_boxes,6,294.5,1.000,36.910,328.373,-1.436,751.007,-10.676,0.000,-1.638,38.883,-0.170,0.000,-0.470,0.234,-0.442,0.003,0.289,0.024,-97.985,0.028,0.000,-2.165,0.000,-0.038,0.000,0.000,-0.009,0.002,-3.224,-0.108,0.238,0.000,1,1,1,1,0.001,0.003,0.036,0.206,0.011,0.011,0.005,0.005,0.206,0.011,0.000,0
20260703_203136,case01_baseline_boxes,6,294.5,1.000,37.018,327.222,-1.436,750.828,-10.668,0.000,-1.679,38.879,0.074,0.000,-0.408,-0.015,-0.414,0.002,0.292,0.024,-98.218,0.029,0.000,-2.333,0.000,-0.038,0.000,0.000,-0.003,0.000,-3.235,-0.109,0.238,0.000,1,1,1,1,0.001,0.003,0.036,0.205,0.011,0.011,0.005,0.005,0.205,0.011,0.000,0
20260703_203136,case01_baseline_boxes,6,294.5,1.000,37.118,326.155,-1.436,750.658,-10.660,0.000,-1.722,38.875,0.081,0.000,-0.436,-0.017,-0.443,0.002,0.294,0.024,-98.438,0.027,0.000,-2.196,0.000,-0.039,0.000,0.000,-0.007,0.000,-3.433,-0.115,0.238,0.000,1,1,1,1,0.001,0.003,0.036,0.205,0.013,0.014,0.005,0.005,0.205,0.014,0.000,0
20260703_203136,case01_baseline_boxes,6,294.5,1.000,37.222,325.051,-1.436,750.477,-10.626,0.000,-1.769,38.780,0.343,0.000,-0.467,-0.268,-0.514,0.002,0.297,0.024,-98.671,0.028,0.000,-2.332,0.000,-0.039,0.000,0.000,-0.005,-0.002,-3.522,-0.118,0.234,0.000,1,1,1,1,-0.002,-0.003,0.029,-0.168,0.013,0.013,0.005,0.005,0.168,0.013,0.000,0
20260703_203136,case01_baseline_boxes,6,294.5,1.000,37.330,323.904,-1.436,750.283,-10.617,0.000,-1.816,38.776,0.093,0.000,-0.471,-0.019,-0.479,0.003,0.300,0.024,-98.920,0.031,0.000,-2.497,0.000,-0.041,0.000,0.000,-0.011,0.000,-3.562,-0.120,0.234,0.000,1,1,1,1,-0.002,-0.004,0.029,-0.168,0.012,0.013,0.005,0.005,0.168,0.013,0.000,0
20260703_203136,case01_baseline_boxes,6,294.5,1.000,37.430,322.839,-1.436,750.098,-10.630,0.000,-1.874,38.859,-0.135,0.000,-0.580,0.225,-0.551,0.003,0.303,0.024,-99.160,0.029,0.000,-2.394,-0.001,-0.043,0.000,0.000,-0.022,0.002,-3.862,-0.123,0.237,0.000,1,1,1,1,0.002,0.003,0.036,0.204,0.016,0.016,0.005,0.005,0.204,0.016,0.000,0
20260703_203136,case01_baseline_boxes,6,294.5,1.000,37.538,321.692,-1.436,749.893,-10.620,0.000,-1.925,38.853,0.107,0.000,-0.509,-0.022,-0.519,0.003,0.306,0.024,-99.427,0.032,0.001,-2.674,-0.001,-0.044,0.000,0.000,-0.014,0.000,-3.904,-0.131,0.237,0.000,1,1,1,1,0.001,0.003,0.036,0.204,0.015,0.016,0.005,0.005,0.204,0.016,0.000,0
20260703_203136,case01_baseline_boxes,6,294.5,1.000,37.646,320.550,-1.436,749.683,-10.583,0.000,-1.978,38.758,0.367,0.000,-0.534,-0.271,-0.588,0.003,0.310,0.024,-99.704,0.035,0.000,-2.764,-0.001,-0.045,0.000,0.000,-0.009,-0.002,-4.011,-0.135,0.234,0.000,1,1,1,1,-0.002,-0.003,0.029,-0.166,0.014,0.015,0.006,0.006,0.166,0.015,0.000,0
20260703_203136,case01_baseline_boxes,6,294.5,1.000,37.750,319.449,-1.436,749.474,-10.571,0.000,-2.033,38.752,0.121,0.000,-0.546,-0.024,-0.559,0.003,0.313,0.024,-99.979,0.036,0.000,-2.758,-0.001,-0.047,0.000,0.000,-0.016,0.000,-4.278,-0.137,0.234,0.000,1,1,1,1,-0.002,-0.003,0.029,-0.166,0.017,0.018,0.006,0.006,0.166,0.018,0.000,0
20260703_203136,case01_baseline_boxes,6,294.5,1.000,37.850,318.387,-1.436,749.267,-10.581,0.000,-2.098,38.833,-0.101,0.000,-0.656,0.217,-0.628,0.004,0.317,0.024,-100.255,0.035,0.000,-2.759,-0.001,-0.049,0.000,-0.001,-0.024,0.002,-4.399,-0.140,0.237,0.000,1,1,1,1,0.002,0.003,0.036,0.202,0.017,0.018,0.006,0.006,0.202,0.018,0.000,0
20260703_203136,case01_baseline_boxes,6,294.5,1.000,37.954,317.291,-1.436,749.046,-10.567,0.000,-2.156,38.827,0.135,0.000,-0.574,-0.028,-0.589,0.003,0.321,0.024,-100.550,0.039,0.000,-2.946,-0.001,-0.051,0.000,0.000,-0.015,0.000,-4.448,-0.150,0.237,0.000,1,1,1,1,0.001,0.003,0.036,0.202,0.016,0.017,0.006,0.006,0.202,0.017,0.000,0
20260703_203136,case01_baseline_boxes,6,294.5,1.000,38.054,316.236,-1.436,748.828,-10.554,0.000,-2.213,38.820,0.136,0.000,-0.567,-0.027,-0.582,0.003,0.325,0.024,-100.842,0.040,0.000,-2.922,-0.001,-0.052,0.000,0.000,-0.011,0.000,-4.298,-0.144,0.237,0.000,1,1,1,1,0.001,0.003,0.036,0.201,0.012,0.014,0.006,0.006,0.201,0.014,0.000,0
20260703_203136,case01_baseline_boxes,6,294.5,1.000,38.162,315.100,-1.436,748.586,-10.515,0.000,-2.269,38.725,0.387,0.000,-0.561,-0.271,-0.625,0.003,0.329,0.024,-101.162,0.042,-0.001,-3.194,-0.001,-0.052,0.000,0.000,0.001,-0.002,-4.451,-0.150,0.234,0.000,1,1,1,1,-0.002,-0.003,0.029,-0.164,0.014,0.015,0.007,0.007,0.164,0.015,0.000,0
20260703_203136,case01_baseline_boxes,6,294.5,1.000,38.266,314.002,-1.436,748.346,-10.500,0.000,-2.328,38.718,0.151,0.000,-0.597,-0.029,-0.615,0.003,0.333,0.024,-101.476,0.041,-0.001,-3.146,-0.001,-0.053,0.000,0.000,-0.013,0.000,-4.785,-0.154,0.233,0.000,1,1,1,1,-0.002,-0.003,0.028,-0.164,0.018,0.019,0.007,0.007,0.164,0.019,0.000,0
20260703_203136,case01_baseline_boxes,6,294.5,1.000,38.370,312.913,-1.436,748.101,-10.484,0.000,-2.391,38.710,0.163,0.000,-0.627,-0.032,-0.647,0.004,0.338,0.024,-101.798,0.042,-0.001,-3.219,-0.001,-0.055,0.000,0.000,-0.017,0.000,-4.921,-0.166,0.234,0.000,1,1,1,1,-0.002,-0.003,0.028,-0.164,0.018,0.020,0.007,0.007,0.164,0.020,0.000,0
20260703_203136,case01_baseline_boxes,6,294.5,1.000,38.474,311.824,-1.436,747.849,-10.488,0.001,-2.469,38.788,-0.039,0.000,-0.779,0.202,-0.754,0.005,0.342,0.024,-102.133,0.044,0.000,-3.348,-0.001,-0.058,0.000,-0.001,-0.030,0.002,-5.154,-0.165,0.237,0.000,1,1,1,1,0.002,0.003,0.036,0.200,0.020,0.021,0.007,0.007,0.200,0.021,0.000,0
20260703_203136,case01_baseline_boxes,6,294.5,1.000,38.574,310.777,-1.436,747.599,-10.468,0.001,-2.538,38.778,0.192,0.000,-0.688,-0.039,-0.713,0.005,0.346,0.024,-102.467,0.045,0.000,-3.346,-0.001,-0.060,0.000,0.000,-0.022,0.000,-5.305,-0.178,0.237,0.000,1,1,1,1,0.002,0.003,0.036,0.199,0.020,0.021,0.007,0.007,0.199,0.021,0.000,0
20260703_203136,case01_baseline_boxes,6,294.5,1.000,38.678,309.690,-1.436,747.331,-10.448,0.001,-2.609,38.768,0.204,0.001,-0.711,-0.041,-0.739,0.005,0.351,0.024,-102.830,0.050,0.001,-3.622,-0.001,-0.062,0.000,0.000,-0.023,0.000,-5.463,-0.184,0.237,0.000,1,1,1,1,0.002,0.003,0.036,0.199,0.020,0.021,0.008,0.008,0.199,0.021,0.000,0
20260703_203136,case01_baseline_boxes,6,294.5,1.000,38.778,308.645,-1.436,747.066,-10.426,0.001,-2.683,38.757,0.219,0.001,-0.739,-0.044,-0.770,0.005,0.357,0.024,-103.193,0.051,0.000,-3.630,-0.001,-0.065,0.000,-0.001,-0.024,0.000,-5.626,-0.189,0.237,0.000,1,1,1,1,0.001,0.003,0.036,0.198,0.019,0.021,0.008,0.008,0.198,0.021,0.000,0
20260703_203136,case01_baseline_boxes,6,294.5,1.000,38.882,307.563,-1.435,746.783,-10.378,0.001,-2.761,38.659,0.485,0.000,-0.780,-0.288,-0.872,0.006,0.362,0.024,-103.584,0.056,0.001,-3.910,-0.001,-0.067,0.000,0.000,-0.020,-0.002,-5.888,-0.198,0.234,0.000,1,1,1,1,-0.002,-0.003,0.028,-0.160,0.020,0.022,0.009,0.008,0.160,0.022,0.000,0
20260703_203136,case01_baseline_boxes,6,294.5,1.000,38.990,306.441,-1.435,746.480,-10.376,0.001,-2.846,38.733,0.018,0.000,-0.854,0.189,-0.833,0.006,0.368,0.024,-104.003,0.061,0.000,-4.193,-0.001,-0.069,0.000,0.000,-0.020,0.002,-5.920,-0.199,0.237,0.000,1,1,1,1,0.001,0.003,0.036,0.196,0.020,0.022,0.009,0.008,0.196,0.022,0.000,0
