run_id,case_name,cargo_count,total_mass_kg,secured_frac,Time,PosX,PosY,PosZ,VelX,VelY,VelZ,SpeedKmh,AccX,AccY,AccZ,LongAcc,LatAcc,VertAcc,Roll,Pitch,Yaw,RollRate,PitchRate,YawRate,AngVelX,AngVelY,AngVelZ,AngAccX,AngAccY,AngAccZ,SteerAngle,TargetSteer,Throttle,Brake,FL_Grounded,FR_Grounded,RL_Grounded,RR_Grounded,FL_ForwardSlip,FR_ForwardSlip,RL_ForwardSlip,RR_ForwardSlip,FL_SideSlip,FR_SideSlip,RL_SideSlip,RR_SideSlip,MaxForwardSlip,MaxSideSlip,RolloverRisk,IsRollover
20260703_215709,case01_boxes_2layer,6,213.5,1.000,1.220,678.944,-1.408,736.107,-0.182,-0.100,0.022,0.753,-1.905,-0.166,0.127,1.906,0.127,-0.165,-0.209,0.028,-89.974,0.476,0.394,0.063,-0.008,0.003,0.007,-0.007,0.027,0.006,16.000,0.518,1.000,0.000,1,1,1,1,-0.005,0.000,0.720,0.305,-0.011,-0.008,-0.002,-0.002,0.720,0.011,0.000,0
20260703_215709,case01_boxes_2layer,6,213.5,1.000,1.320,678.915,-1.417,736.111,-0.372,-0.076,0.049,1.380,-1.901,0.239,0.269,1.901,0.267,0.242,-0.163,0.064,-89.939,0.466,0.364,0.356,-0.008,0.008,0.006,0.006,0.055,-0.016,18.227,0.483,1.000,0.000,1,1,1,1,-0.004,-0.001,-0.415,0.731,-0.011,-0.002,-0.003,-0.003,0.731,0.011,0.000,0
20260703_215709,case01_boxes_2layer,6,213.5,1.000,1.420,678.866,-1.423,736.117,-0.579,-0.037,0.069,2.103,-2.064,0.394,0.207,2.063,0.202,0.398,-0.120,0.089,-89.878,0.422,0.252,0.607,-0.007,0.012,0.003,0.009,0.043,-0.022,17.901,0.476,1.000,0.000,1,1,1,1,-0.006,-0.003,-0.285,-1.329,-0.016,-0.005,-0.002,-0.002,1.329,0.016,0.000,0
20260703_215709,case01_boxes_2layer,6,213.5,1.000,1.520,678.796,-1.425,736.125,-0.785,-0.001,0.089,2.844,-2.062,0.359,0.200,2.062,0.192,0.363,-0.084,0.102,-89.793,0.365,0.124,0.853,-0.006,0.017,0.001,0.010,0.042,-0.021,17.494,0.467,1.000,0.000,1,1,1,1,-0.006,-0.003,0.048,-0.898,-0.017,-0.004,-0.002,-0.002,0.898,0.017,0.000,0
20260703_215709,case01_boxes_2layer,6,213.5,1.000,1.620,678.706,-1.423,736.136,-0.996,0.021,0.106,3.606,-2.110,0.224,0.162,2.110,0.150,0.228,-0.053,0.104,-89.686,0.309,0.021,1.066,-0.005,0.020,0.000,0.008,0.030,-0.014,15.988,0.429,1.000,0.000,1,1,1,1,-0.004,-0.002,0.254,0.322,-0.010,0.002,-0.002,-0.002,0.322,0.010,0.000,0
20260703_215709,case01_boxes_2layer,6,213.5,1.000,1.720,678.596,-1.421,736.148,-1.197,0.029,0.121,4.333,-2.012,0.074,0.157,2.013,0.142,0.078,-0.026,0.099,-89.565,0.268,-0.043,1.214,-0.004,0.022,-0.001,0.007,0.027,-0.008,15.569,0.419,1.000,0.000,1,1,1,1,-0.005,-0.002,0.154,0.270,-0.015,-0.003,-0.002,-0.002,0.270,0.015,0.000,0
20260703_215709,case01_boxes_2layer,6,213.5,1.000,1.820,678.465,-1.418,736.161,-1.394,0.025,0.140,5.044,-1.968,-0.038,0.182,1.970,0.163,-0.035,-0.003,0.093,-89.426,0.228,-0.067,1.384,-0.004,0.025,-0.001,0.007,0.031,-0.002,15.059,0.407,1.000,0.000,1,1,1,1,-0.005,-0.002,0.139,0.045,-0.015,-0.003,-0.002,-0.002,0.139,0.015,0.000,0
20260703_215709,case01_boxes_2layer,6,213.5,1.000,1.920,678.314,-1.416,736.177,-1.597,0.015,0.157,5.777,-2.029,-0.095,0.176,2.031,0.151,-0.091,0.016,0.086,-89.272,0.190,-0.063,1.544,-0.003,0.028,-0.001,0.006,0.025,0.002,13.678,0.371,1.000,0.000,1,1,1,1,-0.005,-0.001,0.137,0.183,-0.014,-0.002,-0.002,-0.002,0.183,0.014,0.000,0
20260703_215709,case01_boxes_2layer,6,213.5,1.000,2.020,678.144,-1.415,736.194,-1.799,0.005,0.168,6.506,-2.025,-0.100,0.108,2.026,0.077,-0.097,0.031,0.082,-89.109,0.159,-0.046,1.631,-0.003,0.029,-0.001,0.005,0.010,0.004,13.108,0.357,1.000,0.000,1,1,1,1,-0.004,-0.001,0.135,0.272,-0.011,0.000,-0.002,-0.002,0.272,0.011,0.000,0
20260703_215709,case01_boxes_2layer,6,213.5,1.000,2.120,677.953,-1.415,736.212,-1.999,-0.002,0.184,7.226,-1.994,-0.074,0.158,1.997,0.121,-0.071,0.044,0.079,-88.937,0.122,-0.027,1.718,-0.002,0.031,0.000,0.007,0.017,0.003,12.428,0.340,1.000,0.000,1,1,1,1,-0.004,-0.001,0.133,0.256,-0.010,0.000,-0.002,-0.002,0.256,0.010,0.000,0
20260703_215709,case01_boxes_2layer,6,213.5,1.000,2.220,677.742,-1.415,736.231,-2.199,-0.006,0.189,7.946,-2.004,-0.037,0.049,2.005,0.006,-0.034,0.053,0.078,-88.763,0.090,-0.011,1.740,-0.001,0.030,0.000,0.005,-0.006,0.002,10.802,0.297,1.000,0.000,1,1,1,1,-0.004,-0.001,0.131,0.150,-0.005,0.003,-0.003,-0.003,0.150,0.005,0.000,0
20260703_215709,case01_boxes_2layer,6,213.5,1.000,2.320,677.511,-1.416,736.251,-2.397,-0.006,0.203,8.660,-1.978,-0.005,0.146,1.981,0.097,-0.002,0.058,0.078,-88.588,0.053,-0.002,1.746,-0.001,0.031,0.000,0.008,0.009,0.001,10.369,0.286,1.000,0.000,1,1,1,1,-0.005,-0.001,0.130,0.087,-0.007,0.000,-0.003,-0.003,0.130,0.007,0.000,0
20260703_215709,case01_boxes_2layer,6,213.5,1.000,2.420,677.260,-1.417,736.273,-2.595,-0.005,0.215,9.375,-1.985,0.014,0.113,1.987,0.058,0.017,0.059,0.078,-88.411,0.013,0.002,1.775,0.000,0.031,0.000,0.006,0.001,0.000,9.460,0.262,1.000,0.000,1,1,1,1,-0.005,-0.001,0.130,0.084,-0.005,0.002,-0.003,-0.003,0.130,0.005,0.000,0
20260703_215709,case01_boxes_2layer,6,213.5,1.000,2.520,676.989,-1.417,736.296,-2.793,-0.003,0.229,10.087,-1.971,0.020,0.139,1.975,0.078,0.023,0.057,0.078,-88.232,-0.024,0.004,1.792,0.001,0.031,0.000,0.006,0.003,0.000,8.628,0.240,1.000,0.000,1,1,1,1,-0.004,-0.001,0.130,0.083,-0.001,0.005,-0.003,-0.003,0.130,0.005,0.000,0
20260703_215709,case01_boxes_2layer,6,213.5,1.000,2.620,676.699,-1.417,736.320,-2.989,-0.001,0.242,10.795,-1.964,0.017,0.135,1.968,0.068,0.020,0.051,0.079,-88.053,-0.055,0.005,1.787,0.001,0.031,0.000,0.005,0.000,0.000,8.236,0.230,1.000,0.000,1,1,1,1,-0.005,-0.001,0.130,0.083,-0.004,0.001,-0.003,-0.003,0.130,0.004,0.000,0
20260703_215709,case01_boxes_2layer,6,213.5,1.000,2.720,676.389,-1.417,736.345,-3.185,0.000,0.255,11.501,-1.957,0.010,0.128,1.960,0.055,0.012,0.043,0.079,-87.875,-0.081,0.005,1.778,0.002,0.031,0.000,0.004,-0.004,0.000,7.529,0.211,1.000,0.000,1,1,1,1,-0.005,-0.001,0.130,0.082,-0.002,0.002,-0.003,-0.003,0.130,0.003,0.000,0
20260703_215709,case01_boxes_2layer,6,213.5,1.000,2.820,676.060,-1.417,736.372,-3.379,0.000,0.269,12.204,-1.946,0.002,0.142,1.950,0.064,0.005,0.033,0.080,-87.699,-0.101,0.006,1.761,0.002,0.030,0.000,0.003,-0.004,0.000,6.888,0.194,1.000,0.000,1,1,1,1,-0.005,-0.001,0.130,0.082,0.000,0.004,-0.003,-0.003,0.130,0.004,0.000,0
20260703_215709,case01_boxes_2layer,6,213.5,1.000,2.920,675.711,-1.417,736.400,-3.573,0.000,0.283,12.903,-1.936,-0.004,0.146,1.941,0.062,-0.001,0.022,0.081,-87.526,-0.114,0.006,1.732,0.002,0.030,0.000,0.002,-0.005,0.000,6.290,0.178,1.000,0.000,1,1,1,1,-0.005,-0.001,0.130,0.082,0.001,0.005,-0.003,-0.003,0.130,0.005,0.000,0
20260703_215709,case01_boxes_2layer,6,213.5,1.000,3.020,675.343,-1.417,736.430,-3.766,-0.001,0.298,13.598,-1.927,-0.006,0.148,1.932,0.059,-0.003,0.010,0.081,-87.356,-0.121,0.006,1.694,0.002,0.029,0.000,0.001,-0.007,0.000,5.760,0.163,1.000,0.000,1,1,1,1,-0.005,-0.001,0.130,0.082,0.002,0.005,-0.004,-0.004,0.130,0.005,0.000,0
20260703_215709,case01_boxes_2layer,6,213.5,1.000,3.120,674.956,-1.417,736.461,-3.957,-0.001,0.313,14.291,-1.917,-0.006,0.150,1.922,0.056,-0.003,-0.003,0.082,-87.191,-0.122,0.004,1.650,0.002,0.028,0.000,0.000,-0.008,0.000,5.271,0.150,1.000,0.000,1,1,1,1,-0.005,-0.001,0.130,0.082,0.002,0.005,-0.004,-0.004,0.130,0.005,0.000,0
20260703_215709,case01_boxes_2layer,6,213.5,1.000,3.220,674.549,-1.417,736.493,-4.148,-0.002,0.326,14.980,-1.911,-0.004,0.131,1.915,0.032,-0.001,-0.014,0.082,-87.033,-0.116,0.003,1.583,0.002,0.027,0.000,-0.002,-0.013,0.000,4.843,0.138,1.000,0.000,1,1,1,1,-0.005,-0.001,0.130,0.082,0.001,0.003,-0.004,-0.004,0.130,0.004,0.000,0
20260703_215709,case01_boxes_2layer,6,213.5,1.000,3.320,674.124,-1.418,736.527,-4.338,-0.002,0.343,15.666,-1.897,-0.001,0.161,1.903,0.058,0.001,-0.025,0.082,-86.881,-0.108,0.001,1.521,0.002,0.026,0.000,-0.001,-0.009,0.000,4.476,0.128,1.000,0.000,1,1,1,1,-0.005,-0.001,0.130,0.082,0.001,0.003,-0.004,-0.004,0.130,0.004,0.000,0
20260703_215709,case01_boxes_2layer,6,213.5,1.000,3.420,673.679,-1.418,736.563,-4.527,-0.002,0.360,16.347,-1.886,0.001,0.173,1.893,0.065,0.003,-0.035,0.082,-86.734,-0.099,-0.001,1.473,0.002,0.025,0.000,-0.002,-0.008,0.000,3.953,0.114,1.000,0.000,1,1,1,1,-0.005,-0.001,0.130,0.081,0.001,0.003,-0.004,-0.004,0.130,0.004,0.000,0
20260703_215709,case01_boxes_2layer,6,213.5,1.000,3.520,673.216,-1.418,736.600,-4.714,-0.002,0.378,17.026,-1.876,0.002,0.179,1.883,0.067,0.005,-0.044,0.082,-86.591,-0.087,-0.002,1.426,0.001,0.025,0.000,-0.002,-0.008,0.000,3.656,0.106,1.000,0.000,1,1,1,1,-0.005,-0.001,0.130,0.081,0.001,0.003,-0.004,-0.004,0.130,0.004,0.000,0
20260703_215709,case01_boxes_2layer,6,213.5,1.000,3.620,672.734,-1.418,736.640,-4.901,-0.001,0.396,17.701,-1.866,0.003,0.182,1.874,0.066,0.006,-0.051,0.081,-86.453,-0.074,-0.003,1.383,0.001,0.024,0.000,-0.003,-0.008,0.000,3.370,0.098,1.000,0.000,1,1,1,1,-0.004,-0.001,0.130,0.081,0.004,0.005,-0.004,-0.004,0.130,0.005,0.000,0
20260703_215709,case01_boxes_2layer,6,213.5,1.000,3.720,672.234,-1.418,736.681,-5.111,0.001,0.415,18.459,-2.096,0.021,0.195,2.105,0.060,0.024,-0.057,0.081,-86.319,-0.060,-0.004,1.334,0.001,0.022,0.000,-0.002,-0.013,0.003,3.108,0.091,1.000,0.000,1,1,1,1,-0.001,0.013,0.164,0.364,0.004,0.005,-0.004,-0.004,0.364,0.005,0.000,0
20260703_215709,case01_boxes_2layer,6,213.5,1.000,3.820,671.716,-1.418,736.723,-5.307,0.000,0.436,19.169,-1.964,-0.006,0.202,1.973,0.071,-0.003,-0.061,0.080,-86.190,-0.043,-0.010,1.289,0.001,0.022,0.000,-0.003,-0.009,0.003,2.854,0.084,1.000,0.000,1,1,1,1,0.000,0.382,0.299,0.439,0.004,0.005,-0.004,-0.005,0.439,0.005,0.000,0
20260703_215709,case01_boxes_2layer,6,213.5,1.000,3.920,671.179,-1.418,736.768,-5.494,0.000,0.455,19.845,-1.869,-0.005,0.191,1.878,0.062,-0.002,-0.064,0.080,-86.068,-0.026,-0.003,1.229,0.000,0.021,0.001,-0.003,-0.010,0.001,2.617,0.077,1.000,0.000,1,1,1,1,0.003,0.248,0.295,0.262,0.003,0.004,-0.004,-0.004,0.295,0.004,0.000,0
20260703_215709,case01_boxes_2layer,6,213.5,1.000,4.020,670.624,-1.418,736.815,-5.667,0.000,0.473,20.473,-1.734,-0.002,0.186,1.743,0.063,0.001,-0.065,0.080,-85.950,-0.009,0.000,1.179,0.000,0.020,0.001,-0.003,-0.007,-0.001,2.286,0.067,0.993,0.000,1,1,1,1,0.006,0.293,0.283,0.474,0.004,0.004,-0.004,-0.005,0.474,0.005,0.000,0
20260703_215709,case01_boxes_2layer,6,213.5,1.000,4.120,670.051,-1.418,736.863,-5.823,0.000,0.490,21.037,-1.558,0.001,0.166,1.566,0.053,0.003,-0.064,0.079,-85.837,0.007,-0.001,1.123,0.000,0.019,0.000,-0.003,-0.007,-0.003,2.089,0.062,0.970,0.000,1,1,1,1,0.010,0.314,0.270,0.572,0.005,0.006,-0.005,-0.005,0.572,0.006,0.000,0
20260703_215709,case01_boxes_2layer,6,213.5,1.000,4.220,669.461,-1.418,736.913,-6.020,0.000,0.510,21.751,-1.973,0.002,0.203,1.982,0.055,0.005,-0.062,0.079,-85.732,0.021,-0.001,1.058,0.000,0.017,0.001,-0.002,-0.017,0.003,1.900,0.056,0.941,0.000,1,1,1,1,-0.001,0.347,0.228,0.236,0.004,0.005,-0.004,-0.004,0.347,0.005,0.000,0
20260703_215709,case01_boxes_2layer,6,213.5,1.000,4.320,668.854,-1.418,736.965,-6.168,0.000,0.527,22.285,-1.475,0.002,0.165,1.483,0.052,0.004,-0.058,0.078,-85.631,0.034,-0.011,1.001,-0.001,0.017,0.000,-0.002,-0.007,-0.003,1.639,0.049,0.921,0.000,1,1,1,1,0.008,0.372,0.234,0.511,0.006,0.006,-0.005,-0.005,0.511,0.006,0.000,0
20260703_215709,case01_boxes_2layer,6,213.5,1.000,4.420,668.231,-1.418,737.019,-6.326,0.000,0.543,22.856,-1.579,0.001,0.162,1.587,0.039,0.003,-0.054,0.077,-85.538,0.045,-0.014,0.931,-0.001,0.015,0.000,-0.002,-0.013,-0.001,1.407,0.042,0.898,0.000,1,1,1,1,0.007,0.366,0.222,0.513,0.006,0.007,-0.005,-0.005,0.513,0.007,0.000,0
20260703_215709,case01_boxes_2layer,6,213.5,1.000,4.520,667.592,-1.418,737.074,-6.471,0.000,0.558,23.381,-1.450,0.000,0.155,1.457,0.039,0.002,-0.048,0.075,-85.452,0.055,-0.020,0.859,-0.001,0.014,0.000,-0.002,-0.011,-0.002,1.281,0.038,0.876,0.000,1,1,1,1,0.008,0.357,0.203,0.546,0.006,0.006,-0.005,-0.005,0.546,0.006,0.000,0
20260703_215709,case01_boxes_2layer,6,213.5,1.000,4.620,666.939,-1.418,737.131,-6.643,0.000,0.576,24.003,-1.719,-0.001,0.181,1.728,0.041,0.001,-0.042,0.073,-85.373,0.062,-0.023,0.794,-0.001,0.013,0.000,-0.001,-0.017,0.003,1.105,0.033,0.850,0.000,1,1,1,1,-0.002,0.341,0.176,0.225,0.005,0.005,-0.004,-0.004,0.341,0.005,0.000,0
20260703_215709,case01_boxes_2layer,6,213.5,1.000,4.720,666.271,-1.418,737.189,-6.771,0.000,0.592,24.470,-1.289,-0.001,0.152,1.297,0.045,0.001,-0.036,0.070,-85.299,0.065,-0.024,0.738,-0.001,0.012,0.000,0.000,-0.006,-0.002,1.007,0.030,0.828,0.000,1,1,1,1,0.000,0.334,0.175,0.080,0.004,0.004,-0.004,-0.004,0.334,0.004,0.000,0
20260703_215709,case01_boxes_2layer,6,213.5,1.000,4.820,665.589,-1.418,737.249,-6.903,0.000,0.607,24.947,-1.318,0.000,0.151,1.326,0.041,0.002,-0.029,0.068,-85.231,0.066,-0.020,0.683,-0.001,0.011,0.000,0.000,-0.007,-0.001,0.861,0.026,0.807,0.000,1,1,1,1,0.000,0.323,0.165,0.019,0.004,0.004,-0.004,-0.004,0.323,0.004,0.000,0
20260703_215709,case01_boxes_2layer,6,213.5,1.000,4.920,664.893,-1.418,737.311,-7.039,0.000,0.622,25.438,-1.354,0.000,0.155,1.362,0.041,0.002,-0.023,0.066,-85.167,0.064,-0.022,0.638,-0.001,0.010,0.000,0.000,-0.009,0.000,0.727,0.022,0.793,0.000,1,1,1,1,0.006,0.319,0.147,0.502,0.005,0.005,-0.004,-0.004,0.502,0.005,0.000,0
20260703_215709,case01_boxes_2layer,6,213.5,1.000,5.020,664.184,-1.418,737.374,-7.160,0.000,0.636,25.878,-1.216,0.001,0.140,1.223,0.036,0.002,-0.017,0.064,-85.108,0.061,-0.019,0.590,-0.001,0.010,0.000,0.001,-0.008,-0.001,0.650,0.020,0.769,0.000,1,1,1,1,-0.003,0.300,0.116,-0.017,0.004,0.004,-0.003,-0.003,0.300,0.004,0.000,0
20260703_215709,case01_boxes_2layer,6,213.5,1.000,5.120,663.462,-1.418,737.438,-7.295,0.000,0.651,26.367,-1.349,0.000,0.151,1.357,0.034,0.002,-0.011,0.062,-85.054,0.056,-0.016,0.544,-0.001,0.009,0.000,0.001,-0.010,0.002,0.542,0.017,0.751,0.000,1,1,1,1,0.000,0.295,0.107,0.107,0.005,0.005,-0.003,-0.003,0.295,0.005,0.000,0
20260703_215709,case01_boxes_2layer,6,213.5,1.000,5.220,662.728,-1.418,737.504,-7.374,0.000,0.661,26.655,-0.794,0.001,0.101,0.800,0.032,0.001,-0.006,0.061,-85.003,0.050,-0.017,0.506,-0.001,0.009,0.000,0.001,0.002,-0.005,0.473,0.014,0.731,0.000,1,1,1,1,-0.004,0.280,0.112,-0.366,0.004,0.004,-0.003,-0.003,0.366,0.004,0.000,0
20260703_215709,case01_boxes_2layer,6,213.5,1.000,5.320,661.982,-1.418,737.571,-7.527,0.000,0.678,27.208,-1.528,0.000,0.164,1.537,0.029,0.001,-0.002,0.059,-84.957,0.043,-0.013,0.461,-0.001,0.007,0.000,0.002,-0.015,0.005,0.386,0.012,0.717,0.000,1,1,1,1,-0.001,0.277,0.121,0.073,0.004,0.004,-0.003,-0.003,0.277,0.004,0.000,0
20260703_215709,case01_boxes_2layer,6,213.5,1.000,5.420,661.225,-1.418,737.640,-7.654,0.000,0.692,27.667,-1.267,0.000,0.140,1.274,0.027,0.001,0.002,0.058,-84.915,0.035,-0.011,0.422,-0.001,0.006,0.000,0.002,-0.010,0.002,0.309,0.010,0.702,0.000,1,1,1,1,0.001,0.266,0.119,0.256,0.004,0.004,-0.003,-0.003,0.266,0.004,0.000,0
20260703_215709,case01_boxes_2layer,6,213.5,1.000,5.520,660.458,-1.418,737.709,-7.752,0.000,0.703,28.021,-0.978,-0.001,0.112,0.984,0.024,0.000,0.005,0.057,-84.876,0.027,-0.013,0.390,0.000,0.006,0.000,0.001,-0.004,-0.001,0.250,0.008,0.686,0.000,1,1,1,1,0.000,0.258,0.118,0.134,0.004,0.004,-0.003,-0.003,0.258,0.004,0.000,0
20260703_215709,case01_boxes_2layer,6,213.5,1.000,5.620,659.679,-1.418,737.780,-7.851,0.000,0.714,28.380,-0.993,-0.001,0.111,0.999,0.022,0.000,0.006,0.056,-84.840,0.020,-0.013,0.356,0.000,0.005,0.000,0.001,-0.005,-0.001,0.185,0.006,0.675,0.000,1,1,1,1,0.005,0.251,0.116,0.465,0.005,0.005,-0.003,-0.003,0.465,0.005,0.000,0
20260703_215709,case01_boxes_2layer,6,213.5,1.000,5.720,658.891,-1.418,737.852,-7.955,0.000,0.726,28.756,-1.036,-0.001,0.114,1.042,0.020,0.000,0.008,0.055,-84.808,0.013,-0.012,0.320,0.000,0.005,0.000,0.001,-0.006,0.000,0.131,0.004,0.660,0.000,1,1,1,1,0.004,0.238,0.112,0.442,0.005,0.005,-0.003,-0.003,0.442,0.005,0.000,0
20260703_215709,case01_boxes_2layer,6,213.5,1.000,5.820,658.092,-1.418,737.925,-8.056,0.000,0.737,29.123,-1.015,-0.001,0.112,1.021,0.019,0.000,0.008,0.053,-84.779,0.006,-0.011,0.290,0.000,0.004,0.000,0.001,-0.006,0.001,0.085,0.003,0.645,0.000,1,1,1,1,0.003,0.228,0.109,0.404,0.004,0.004,-0.003,-0.003,0.404,0.004,0.000,0
20260703_215709,case01_boxes_2layer,6,213.5,1.000,5.920,657.285,-1.418,737.999,-8.153,-0.001,0.747,29.474,-0.967,-0.001,0.107,0.973,0.018,0.000,0.008,0.052,-84.753,-0.001,-0.012,0.263,0.000,0.004,0.000,0.001,-0.005,0.000,0.047,0.001,0.631,0.000,1,1,1,1,0.002,0.216,0.107,0.362,0.004,0.004,-0.003,-0.003,0.362,0.004,0.000,0
20260703_215709,case01_boxes_2layer,6,213.5,1.000,6.020,656.468,-1.418,738.074,-8.234,-0.001,0.757,29.766,-0.806,-0.001,0.092,0.812,0.018,0.000,0.008,0.051,-84.729,-0.006,-0.011,0.238,0.000,0.003,0.000,0.001,-0.002,-0.001,0.017,0.001,0.619,0.000,1,1,1,1,0.004,0.202,0.102,0.436,0.004,0.004,-0.003,-0.003,0.436,0.004,0.000,0
20260703_215709,case01_boxes_2layer,6,213.5,1.000,6.120,655.642,-1.418,738.151,-8.330,-0.001,0.767,30.115,-0.963,0.000,0.106,0.969,0.017,0.001,0.007,0.050,-84.708,-0.011,-0.009,0.213,0.000,0.003,0.000,0.001,-0.006,0.001,-0.011,0.000,0.604,0.000,1,1,1,1,0.001,0.187,0.098,0.277,0.004,0.004,-0.003,-0.003,0.277,0.004,0.000,0
20260703_215709,case01_boxes_2layer,6,213.5,1.000,6.220,654.807,-1.418,738.227,-8.403,-0.001,0.776,30.380,-0.732,0.000,0.085,0.736,0.016,0.000,0.005,0.049,-84.688,-0.015,-0.011,0.197,0.000,0.003,0.000,0.000,-0.001,-0.002,-0.041,-0.001,0.594,0.000,1,1,1,1,0.004,0.172,0.097,0.433,0.004,0.004,-0.003,-0.003,0.433,0.004,0.000,0
20260703_215709,case01_boxes_2layer,6,213.5,1.000,6.320,653.965,-1.418,738.305,-8.493,-0.001,0.786,30.704,-0.896,0.000,0.099,0.902,0.016,0.001,0.003,0.048,-84.671,-0.018,-0.009,0.176,0.000,0.002,0.000,0.001,-0.005,0.001,-0.065,-0.002,0.579,0.000,1,1,1,1,0.001,0.150,0.093,0.268,0.004,0.004,-0.002,-0.002,0.268,0.004,0.000,0
20260703_215709,case01_boxes_2layer,6,213.5,1.000,6.420,653.114,-1.418,738.384,-8.561,-0.001,0.794,30.952,-0.683,0.000,0.079,0.688,0.015,0.000,0.001,0.047,-84.654,-0.019,-0.011,0.163,0.000,0.002,0.000,0.000,0.000,-0.001,-0.073,-0.002,0.570,0.000,1,1,1,1,0.003,0.123,0.091,0.423,0.004,0.004,-0.002,-0.002,0.423,0.004,0.000,0
20260703_215709,case01_boxes_2layer,6,213.5,1.000,6.520,652.256,-1.418,738.464,-8.643,-0.001,0.803,31.249,-0.821,0.000,0.093,0.826,0.015,0.001,-0.001,0.046,-84.640,-0.020,-0.009,0.147,0.000,0.002,0.000,0.000,-0.003,0.001,-0.082,-0.003,0.557,0.000,1,1,1,1,0.000,0.081,0.087,0.285,0.003,0.003,-0.002,-0.002,0.285,0.003,0.000,0
20260703_215709,case01_boxes_2layer,6,213.5,1.000,6.620,651.390,-1.418,738.544,-8.706,-0.001,0.810,31.477,-0.629,0.000,0.074,0.633,0.015,0.001,-0.003,0.045,-84.626,-0.020,-0.010,0.139,0.000,0.002,0.000,0.000,0.000,-0.001,-0.093,-0.003,0.548,0.000,1,1,1,1,0.002,0.036,0.085,0.414,0.004,0.004,-0.002,-0.002,0.414,0.004,0.000,0
20260703_215709,case01_boxes_2layer,6,213.5,1.000,6.720,650.517,-1.418,738.626,-8.783,-0.001,0.819,31.757,-0.772,0.000,0.087,0.777,0.015,0.001,-0.005,0.045,-84.613,-0.019,-0.009,0.125,0.000,0.002,0.000,0.000,-0.003,0.001,-0.117,-0.004,0.536,0.000,1,1,1,1,0.000,0.017,0.082,0.299,0.003,0.003,-0.002,-0.002,0.299,0.003,0.000,0
20260703_215709,case01_boxes_2layer,6,213.5,1.000,6.820,649.637,-1.419,738.708,-8.844,-0.001,0.826,31.978,-0.609,0.000,0.072,0.613,0.014,0.001,-0.006,0.044,-84.601,-0.018,-0.010,0.118,0.000,0.002,0.000,0.000,0.000,-0.001,-0.124,-0.004,0.528,0.000,1,1,1,1,0.002,0.016,0.082,0.405,0.003,0.003,-0.002,-0.002,0.405,0.003,0.000,0
20260703_215709,case01_boxes_2layer,6,213.5,1.000,6.920,648.751,-1.419,738.791,-8.916,-0.001,0.834,32.239,-0.720,0.001,0.081,0.724,0.013,0.001,-0.008,0.043,-84.591,-0.016,-0.008,0.107,0.000,0.001,0.000,0.000,-0.003,0.001,-0.126,-0.004,0.517,0.000,1,1,1,1,0.000,0.014,0.079,0.311,0.003,0.003,-0.002,-0.002,0.311,0.003,0.000,0
20260703_215709,case01_boxes_2layer,6,213.5,1.000,7.020,647.858,-1.419,738.875,-8.974,-0.001,0.841,32.447,-0.575,0.001,0.067,0.579,0.013,0.001,-0.009,0.042,-84.581,-0.013,-0.009,0.101,0.000,0.001,0.000,-0.001,0.000,-0.001,-0.132,-0.004,0.509,0.000,1,1,1,1,0.002,0.014,0.079,0.395,0.003,0.003,-0.002,-0.002,0.395,0.003,0.000,0
20260703_215709,case01_boxes_2layer,6,213.5,1.000,7.120,646.959,-1.419,738.959,-9.040,0.000,0.849,32.687,-0.661,0.001,0.076,0.665,0.013,0.001,-0.010,0.041,-84.571,-0.010,-0.007,0.092,0.000,0.001,0.000,0.000,-0.002,0.001,-0.130,-0.004,0.499,0.000,1,1,1,1,0.001,0.013,0.077,0.324,0.003,0.003,-0.002,-0.002,0.324,0.003,0.000,0
20260703_215709,case01_boxes_2layer,6,213.5,1.000,7.220,646.054,-1.419,739.044,-9.095,0.000,0.855,32.885,-0.547,0.001,0.065,0.550,0.013,0.001,-0.011,0.040,-84.563,-0.007,-0.008,0.089,0.000,0.001,0.000,-0.001,0.000,0.000,-0.151,-0.005,0.491,0.000,1,1,1,1,0.002,0.013,0.076,0.384,0.003,0.003,-0.002,-0.002,0.384,0.003,0.000,0
20260703_215709,case01_boxes_2layer,6,213.5,1.000,7.320,645.144,-1.419,739.130,-9.155,0.000,0.862,33.103,-0.603,0.001,0.069,0.607,0.012,0.001,-0.011,0.040,-84.554,-0.004,-0.006,0.082,0.000,0.001,0.000,0.000,-0.002,0.001,-0.155,-0.005,0.482,0.000,1,1,1,1,0.001,0.012,0.075,0.336,0.003,0.003,-0.002,-0.002,0.336,0.003,0.000,0
20260703_215709,case01_boxes_2layer,6,213.5,1.000,7.420,644.227,-1.419,739.216,-9.207,0.000,0.868,33.293,-0.523,0.001,0.061,0.527,0.011,0.001,-0.012,0.039,-84.547,-0.001,-0.007,0.077,0.000,0.001,0.000,-0.001,0.000,0.000,-0.154,-0.005,0.475,0.000,1,1,1,1,0.002,0.012,0.074,0.371,0.003,0.003,-0.002,-0.002,0.371,0.003,0.000,0
20260703_215709,case01_boxes_2layer,6,213.5,1.000,7.520,643.306,-1.419,739.303,-9.262,0.000,0.875,33.491,-0.547,0.000,0.064,0.551,0.011,0.001,-0.011,0.038,-84.539,0.002,-0.006,0.072,0.000,0.001,0.000,0.000,-0.001,0.000,-0.151,-0.005,0.467,0.000,1,1,1,1,0.001,0.011,0.072,0.345,0.003,0.003,-0.002,-0.002,0.345,0.003,0.000,0
20260703_215709,case01_boxes_2layer,6,213.5,1.000,7.620,642.379,-1.419,739.391,-9.312,0.000,0.881,33.673,-0.501,0.000,0.059,0.504,0.011,0.001,-0.011,0.038,-84.533,0.005,-0.006,0.069,0.000,0.001,0.000,0.000,0.000,0.000,-0.150,-0.005,0.460,0.000,1,1,1,1,0.002,0.011,0.071,0.359,0.003,0.003,-0.002,-0.002,0.359,0.003,0.000,0
20260703_215709,case01_boxes_2layer,6,213.5,1.000,7.720,641.447,-1.419,739.479,-9.362,0.000,0.886,33.853,-0.499,0.000,0.058,0.502,0.010,0.001,-0.010,0.037,-84.526,0.007,-0.006,0.065,0.000,0.001,0.000,0.000,-0.001,0.000,-0.151,-0.005,0.453,0.000,1,1,1,1,0.001,0.011,0.070,0.349,0.003,0.003,-0.002,-0.002,0.349,0.003,0.000,0
20260703_215709,case01_boxes_2layer,6,213.5,1.000,7.820,640.510,-1.419,739.568,-9.409,0.000,0.892,34.025,-0.474,0.000,0.055,0.477,0.009,0.001,-0.009,0.037,-84.520,0.008,-0.005,0.061,0.000,0.001,0.000,0.000,-0.001,0.000,-0.148,-0.005,0.445,0.000,1,1,1,1,0.001,0.010,0.069,0.350,0.003,0.003,-0.002,-0.002,0.350,0.003,0.000,0
20260703_215709,case01_boxes_2layer,6,213.5,1.000,7.920,639.569,-1.419,739.657,-9.455,0.000,0.897,34.192,-0.460,0.000,0.055,0.464,0.010,0.001,-0.008,0.036,-84.514,0.010,-0.005,0.058,0.000,0.001,0.000,0.000,0.000,0.000,-0.168,-0.005,0.439,0.000,1,1,1,1,0.001,0.010,0.068,0.347,0.003,0.003,-0.002,-0.002,0.347,0.003,0.000,0
20260703_215709,case01_boxes_2layer,6,213.5,1.000,8.020,638.623,-1.419,739.747,-9.500,0.000,0.902,34.353,-0.443,0.000,0.051,0.446,0.009,0.000,-0.007,0.036,-84.509,0.011,-0.005,0.055,0.000,0.000,0.000,0.000,-0.001,0.000,-0.169,-0.005,0.432,0.000,1,1,1,1,0.001,0.010,0.067,0.345,0.003,0.003,-0.002,-0.002,0.345,0.003,0.000,0
20260703_215709,case01_boxes_2layer,6,213.5,1.000,8.120,637.672,-1.419,739.837,-9.542,0.000,0.907,34.508,-0.428,0.000,0.050,0.431,0.008,0.000,-0.006,0.035,-84.504,0.012,-0.005,0.052,0.000,0.000,0.000,0.000,-0.001,0.000,-0.169,-0.005,0.426,0.000,1,1,1,1,0.001,0.010,0.066,0.343,0.003,0.003,-0.002,-0.002,0.343,0.003,0.000,0
20260703_215709,case01_boxes_2layer,6,213.5,1.000,8.220,636.718,-1.419,739.928,-9.584,0.000,0.912,34.658,-0.413,0.000,0.048,0.416,0.008,0.000,-0.005,0.035,-84.499,0.012,-0.005,0.048,0.000,0.000,0.000,0.000,-0.001,0.000,-0.169,-0.005,0.420,0.000,1,1,1,1,0.001,0.009,0.065,0.341,0.003,0.003,-0.002,-0.002,0.341,0.003,0.000,0
20260703_215709,case01_boxes_2layer,6,213.5,1.000,8.320,635.759,-1.419,740.019,-9.624,0.000,0.917,34.802,-0.399,0.000,0.045,0.402,0.006,0.000,-0.004,0.034,-84.494,0.012,-0.005,0.045,0.000,0.000,0.000,0.000,-0.001,0.000,-0.167,-0.005,0.414,0.000,1,1,1,1,0.002,0.009,0.064,0.340,0.003,0.003,-0.002,-0.002,0.340,0.003,0.000,0
20260703_215709,case01_boxes_2layer,6,213.5,1.000,8.420,634.797,-1.419,740.111,-9.662,0.000,0.921,34.942,-0.385,0.000,0.043,0.388,0.006,0.000,-0.003,0.034,-84.490,0.011,-0.005,0.042,0.000,0.000,0.000,0.000,-0.001,0.000,-0.167,-0.005,0.409,0.000,1,1,1,1,0.002,0.009,0.064,0.338,0.002,0.002,-0.002,-0.002,0.338,0.002,0.000,0
20260703_215709,case01_boxes_2layer,6,213.5,1.000,8.520,633.831,-1.419,740.203,-9.699,0.000,0.925,35.077,-0.372,0.000,0.042,0.374,0.006,0.000,-0.002,0.033,-84.486,0.010,-0.005,0.038,0.000,0.000,0.000,0.000,0.000,0.000,-0.167,-0.005,0.403,0.000,1,1,1,1,0.002,0.009,0.063,0.336,0.002,0.002,-0.002,-0.002,0.336,0.002,0.000,0
20260703_215709,case01_boxes_2layer,6,213.5,1.000,8.620,632.861,-1.419,740.296,-9.735,0.000,0.929,35.206,-0.359,0.000,0.039,0.361,0.004,0.000,-0.001,0.033,-84.483,0.009,-0.005,0.035,0.000,0.000,0.000,0.000,-0.001,0.000,-0.167,-0.005,0.398,0.000,1,1,1,1,0.002,0.009,0.062,0.334,0.003,0.003,-0.002,-0.002,0.334,0.003,0.000,0
20260703_215709,case01_boxes_2layer,6,213.5,1.000,8.720,631.887,-1.419,740.389,-9.770,0.000,0.933,35.332,-0.346,0.000,0.038,0.349,0.005,0.000,0.000,0.032,-84.479,0.008,-0.004,0.032,0.000,0.000,0.000,0.000,-0.001,0.000,-0.192,-0.006,0.393,0.000,1,1,1,1,0.002,0.009,0.061,0.333,0.003,0.003,-0.002,-0.002,0.333,0.003,0.000,0
20260703_215709,case01_boxes_2layer,6,213.5,1.000,8.820,630.911,-1.419,740.482,-9.803,0.000,0.937,35.453,-0.334,0.000,0.036,0.336,0.004,0.000,0.001,0.032,-84.477,0.007,-0.004,0.028,0.000,0.000,0.000,0.000,-0.001,0.000,-0.187,-0.006,0.388,0.000,1,1,1,1,0.002,0.008,0.061,0.331,0.003,0.003,-0.001,-0.001,0.331,0.003,0.000,0
20260703_215709,case01_boxes_2layer,6,213.5,1.000,8.920,629.931,-1.419,740.576,-9.836,0.000,0.940,35.570,-0.323,0.000,0.035,0.325,0.004,0.000,0.001,0.031,-84.474,0.006,-0.004,0.026,0.000,0.000,0.000,0.000,0.000,0.000,-0.188,-0.006,0.384,0.000,1,1,1,1,0.002,0.008,0.060,0.330,0.003,0.003,-0.001,-0.001,0.330,0.003,0.000,0
20260703_215709,case01_boxes_2layer,6,213.5,1.000,9.020,628.947,-1.419,740.670,-9.867,0.000,0.943,35.682,-0.311,0.000,0.033,0.313,0.003,0.000,0.002,0.031,-84.472,0.004,-0.004,0.022,0.000,0.000,0.000,0.000,-0.001,0.000,-0.187,-0.006,0.379,0.000,1,1,1,1,0.002,0.008,0.059,0.328,0.002,0.002,-0.001,-0.001,0.328,0.002,0.000,0
20260703_215709,case01_boxes_2layer,6,213.5,1.000,9.120,627.961,-1.419,740.764,-9.897,0.000,0.946,35.791,-0.301,0.000,0.031,0.302,0.002,0.000,0.002,0.031,-84.470,0.003,-0.004,0.019,0.000,0.000,0.000,0.000,-0.001,0.000,-0.189,-0.006,0.375,0.000,1,1,1,1,0.002,0.008,0.059,0.327,0.002,0.002,-0.001,-0.001,0.327,0.002,0.000,0
20260703_215709,case01_boxes_2layer,6,213.5,1.000,9.220,626.972,-1.419,740.859,-9.926,0.000,0.949,35.896,-0.290,0.000,0.030,0.292,0.001,0.000,0.002,0.030,-84.468,0.002,-0.004,0.016,0.000,0.000,0.000,0.000,-0.001,0.000,-0.189,-0.006,0.370,0.000,1,1,1,1,0.002,0.008,0.058,0.325,0.002,0.002,-0.001,-0.001,0.325,0.002,0.000,0
20260703_215709,case01_boxes_2layer,6,213.5,1.000,9.320,625.980,-1.419,740.953,-9.954,0.000,0.952,35.998,-0.280,0.000,0.028,0.282,0.001,0.000,0.002,0.030,-84.467,0.001,-0.003,0.012,0.000,0.000,0.000,0.000,-0.001,0.000,-0.188,-0.006,0.366,0.000,1,1,1,1,0.002,0.008,0.057,0.324,0.002,0.002,-0.001,-0.001,0.324,0.002,0.000,0
20260703_215709,case01_boxes_2layer,6,213.5,1.000,9.420,624.985,-1.419,741.049,-9.981,0.000,0.955,36.095,-0.270,0.000,0.026,0.272,0.000,0.000,0.002,0.030,-84.466,0.000,-0.003,0.009,0.000,0.000,0.000,0.000,-0.001,0.000,-0.188,-0.006,0.362,0.000,1,1,1,1,0.002,0.008,0.057,0.323,0.003,0.003,-0.001,-0.001,0.323,0.003,0.000,0
20260703_215709,case01_boxes_2layer,6,213.5,1.000,9.520,623.987,-1.419,741.144,-10.007,0.000,0.957,36.190,-0.261,0.000,0.026,0.262,0.000,0.000,0.002,0.029,-84.466,-0.001,-0.003,0.006,0.000,0.000,0.000,0.000,0.000,0.000,-0.213,-0.007,0.359,0.000,1,1,1,1,0.002,0.008,0.056,0.321,0.003,0.003,-0.001,-0.001,0.321,0.003,0.000,0
20260703_215709,case01_boxes_2layer,6,213.5,1.000,9.620,622.987,-1.419,741.240,-10.032,0.000,0.960,36.281,-0.252,0.000,0.024,0.253,0.000,0.000,0.002,0.029,-84.465,-0.002,-0.003,0.002,0.000,0.000,0.000,0.000,-0.001,0.000,-0.211,-0.007,0.355,0.000,1,1,1,1,0.002,0.008,0.056,0.320,0.003,0.003,-0.001,-0.001,0.320,0.003,0.000,0
20260703_215709,case01_boxes_2layer,6,213.5,1.000,9.720,621.985,-1.419,741.336,-10.057,0.000,0.962,36.369,-0.243,0.000,0.024,0.244,0.000,0.000,0.002,0.029,-84.465,-0.002,-0.003,0.000,0.000,0.000,0.000,0.000,0.000,0.000,-0.207,-0.007,0.351,0.000,1,1,1,1,0.002,0.007,0.055,0.319,0.002,0.002,-0.001,-0.001,0.319,0.002,0.000,0
20260703_215709,case01_boxes_2layer,6,213.5,1.000,9.820,620.980,-1.419,741.432,-10.080,0.000,0.964,36.454,-0.235,0.000,0.022,0.236,-0.001,0.000,0.002,0.028,-84.466,-0.002,-0.003,-0.002,0.000,0.000,0.000,0.000,0.000,0.000,-0.208,-0.007,0.348,0.000,1,1,1,1,0.002,0.007,0.055,0.318,0.002,0.002,-0.001,-0.001,0.318,0.002,0.000,0
20260703_215709,case01_boxes_2layer,6,213.5,1.000,9.920,619.972,-1.419,741.528,-10.103,0.000,0.966,36.536,-0.227,0.000,0.020,0.227,-0.002,0.000,0.002,0.028,-84.466,-0.002,-0.003,-0.005,0.000,-0.001,0.000,0.000,0.000,0.000,-0.209,-0.007,0.345,0.000,1,1,1,1,0.002,0.007,0.054,0.317,0.002,0.002,-0.001,-0.001,0.317,0.002,0.000,0
20260703_215709,case01_boxes_2layer,6,213.5,1.000,10.020,618.963,-1.419,741.625,-10.125,0.000,0.968,36.615,-0.219,0.000,0.020,0.220,-0.002,0.000,0.001,0.028,-84.467,-0.002,-0.003,-0.007,0.000,-0.001,0.000,0.000,0.000,0.000,-0.207,-0.007,0.341,0.000,1,1,1,1,0.002,0.007,0.054,0.316,0.002,0.002,-0.001,-0.001,0.316,0.002,0.000,0
20260703_215709,case01_boxes_2layer,6,213.5,1.000,10.120,617.951,-1.419,741.721,-10.146,0.000,0.970,36.691,-0.211,0.000,0.017,0.212,-0.004,0.000,0.001,0.028,-84.468,-0.002,-0.003,-0.010,0.000,-0.001,0.000,0.000,-0.001,0.000,-0.209,-0.007,0.338,0.000,1,1,1,1,0.002,0.007,0.053,0.315,0.002,0.002,-0.001,-0.001,0.315,0.002,0.000,0
20260703_215709,case01_boxes_2layer,6,213.5,1.000,10.220,616.937,-1.419,741.818,-10.166,0.000,0.972,36.765,-0.204,0.000,0.016,0.204,-0.003,0.000,0.001,0.027,-84.469,-0.002,-0.002,-0.013,0.000,-0.001,0.000,0.000,-0.001,0.000,-0.206,-0.007,0.335,0.000,1,1,1,1,0.002,0.007,0.053,0.314,0.003,0.003,-0.001,-0.001,0.314,0.003,0.000,0
20260703_215709,case01_boxes_2layer,6,213.5,1.000,10.320,615.922,-1.419,741.915,-10.186,0.000,0.973,36.836,-0.197,0.000,0.016,0.197,-0.003,0.000,0.001,0.027,-84.471,-0.001,-0.002,-0.015,0.000,-0.001,0.000,0.000,0.000,0.000,-0.228,-0.007,0.333,0.000,1,1,1,1,0.002,0.007,0.052,0.313,0.003,0.003,-0.001,-0.001,0.313,0.003,0.000,0
20260703_215709,case01_boxes_2layer,6,213.5,1.000,10.420,614.904,-1.419,742.013,-10.205,0.000,0.975,36.904,-0.189,0.000,0.015,0.190,-0.004,0.000,0.001,0.027,-84.472,-0.001,-0.002,-0.018,0.000,-0.001,0.000,0.000,0.000,0.000,-0.228,-0.007,0.330,0.000,1,1,1,1,0.002,0.007,0.052,0.312,0.002,0.002,-0.001,-0.001,0.312,0.002,0.000,0
20260703_215709,case01_boxes_2layer,6,213.5,1.000,10.520,613.885,-1.419,742.110,-10.223,0.000,0.976,36.970,-0.183,0.000,0.013,0.184,-0.004,0.000,0.001,0.027,-84.474,0.000,-0.002,-0.020,0.000,-0.001,0.000,0.000,0.000,0.000,-0.227,-0.007,0.327,0.000,1,1,1,1,0.002,0.007,0.052,0.311,0.002,0.002,-0.001,-0.001,0.311,0.002,0.000,0
20260703_215709,case01_boxes_2layer,6,213.5,1.000,10.620,612.863,-1.419,742.207,-10.241,0.000,0.977,37.034,-0.177,0.000,0.012,0.177,-0.005,0.000,0.001,0.026,-84.477,0.000,-0.002,-0.023,0.000,-0.001,0.000,0.000,0.000,0.000,-0.226,-0.007,0.324,0.000,1,1,1,1,0.002,0.007,0.051,0.310,0.002,0.002,-0.001,-0.001,0.310,0.002,0.000,0
20260703_215709,case01_boxes_2layer,6,213.5,1.000,10.720,611.840,-1.419,742.305,-10.258,0.000,0.978,37.095,-0.171,0.000,0.011,0.171,-0.005,0.000,0.001,0.026,-84.479,0.001,-0.002,-0.025,0.000,-0.001,0.000,0.000,0.000,0.000,-0.226,-0.007,0.322,0.000,1,1,1,1,0.002,0.007,0.051,0.309,0.002,0.002,-0.001,-0.001,0.309,0.002,0.000,0
20260703_215709,case01_boxes_2layer,6,213.5,1.000,10.820,610.815,-1.419,742.403,-10.274,0.000,0.979,37.155,-0.165,0.000,0.010,0.165,-0.006,0.000,0.001,0.026,-84.482,0.002,-0.002,-0.028,0.000,-0.001,0.000,0.000,0.000,0.000,-0.223,-0.007,0.319,0.000,1,1,1,1,0.002,0.007,0.051,0.308,0.002,0.002,-0.001,-0.001,0.308,0.002,0.000,0
20260703_215709,case01_boxes_2layer,6,213.5,1.000,10.920,609.789,-1.419,742.500,-10.290,0.000,0.980,37.212,-0.159,0.000,0.009,0.159,-0.006,0.000,0.001,0.026,-84.485,0.002,-0.002,-0.030,0.000,-0.001,0.000,0.000,0.000,0.000,-0.225,-0.007,0.317,0.000,1,1,1,1,0.002,0.007,0.050,0.307,0.002,0.002,-0.001,-0.001,0.307,0.002,0.000,0
20260703_215709,case01_boxes_2layer,6,213.5,1.000,11.020,608.761,-1.419,742.598,-10.305,0.000,0.981,37.267,-0.153,0.000,0.007,0.153,-0.008,0.000,0.001,0.026,-84.489,0.003,-0.002,-0.034,0.000,-0.001,0.000,0.000,-0.001,0.000,-0.228,-0.007,0.315,0.000,1,1,1,1,0.002,0.007,0.050,0.306,0.003,0.003,-0.001,-0.001,0.306,0.003,0.000,0
20260703_215709,case01_boxes_2layer,6,213.5,1.000,11.120,607.732,-1.419,742.696,-10.320,0.000,0.982,37.320,-0.148,0.000,0.006,0.148,-0.008,0.000,0.002,0.026,-84.492,0.003,-0.002,-0.037,0.000,-0.001,0.000,0.000,-0.001,0.000,-0.252,-0.008,0.313,0.000,1,1,1,1,0.002,0.007,0.049,0.306,0.003,0.003,-0.001,-0.001,0.306,0.003,0.000,0
20260703_215709,case01_boxes_2layer,6,213.5,1.000,11.220,606.701,-1.419,742.794,-10.334,0.000,0.982,37.372,-0.143,0.000,0.006,0.143,-0.008,0.000,0.002,0.025,-84.496,0.004,-0.002,-0.040,0.000,-0.001,0.000,0.000,0.000,0.000,-0.248,-0.008,0.311,0.000,1,1,1,1,0.002,0.007,0.049,0.305,0.002,0.002,-0.001,-0.001,0.305,0.002,0.000,0
20260703_215709,case01_boxes_2layer,6,213.5,1.000,11.320,605.669,-1.419,742.892,-10.348,0.000,0.983,37.421,-0.138,0.000,0.005,0.138,-0.008,0.000,0.002,0.025,-84.501,0.004,-0.002,-0.043,0.000,-0.001,0.000,0.000,0.000,0.000,-0.246,-0.008,0.309,0.000,1,1,1,1,0.002,0.007,0.049,0.304,0.002,0.002,-0.001,-0.001,0.304,0.002,0.000,0
20260703_215709,case01_boxes_2layer,6,213.5,1.000,11.420,604.635,-1.419,742.990,-10.362,0.000,0.983,37.469,-0.133,0.000,0.004,0.133,-0.009,0.000,0.003,0.025,-84.505,0.004,-0.002,-0.045,0.000,-0.001,0.000,0.000,0.000,0.000,-0.241,-0.008,0.307,0.000,1,1,1,1,0.002,0.007,0.049,0.303,0.002,0.002,-0.001,-0.001,0.303,0.002,0.000,0
20260703_215709,case01_boxes_2layer,6,213.5,1.000,11.520,603.600,-1.419,743.088,-10.374,0.000,0.984,37.515,-0.128,0.000,0.004,0.128,-0.008,0.000,0.003,0.025,-84.510,0.004,-0.002,-0.046,0.000,-0.001,0.000,0.000,0.000,0.000,-0.239,-0.008,0.305,0.000,1,1,1,1,0.002,0.007,0.048,0.303,0.002,0.002,-0.001,-0.001,0.303,0.002,0.000,0
20260703_215709,case01_boxes_2layer,6,213.5,1.000,11.620,602.564,-1.419,743.187,-10.387,0.000,0.984,37.560,-0.124,0.000,0.002,0.124,-0.010,0.000,0.004,0.025,-84.514,0.004,-0.002,-0.048,0.000,-0.001,0.000,0.000,0.000,0.000,-0.240,-0.008,0.303,0.000,1,1,1,1,0.002,0.006,0.048,0.302,0.003,0.003,-0.001,-0.001,0.302,0.003,0.000,0
20260703_215709,case01_boxes_2layer,6,213.5,1.000,11.720,601.527,-1.419,743.285,-10.399,0.000,0.984,37.603,-0.120,0.000,0.001,0.119,-0.010,0.000,0.004,0.025,-84.519,0.004,-0.002,-0.050,0.000,-0.001,0.000,0.000,0.000,0.000,-0.241,-0.008,0.301,0.000,1,1,1,1,0.002,0.006,0.048,0.301,0.003,0.003,-0.001,-0.001,0.301,0.003,0.000,0
20260703_215709,case01_boxes_2layer,6,213.5,1.000,11.820,600.488,-1.419,743.383,-10.410,0.000,0.984,37.644,-0.116,0.000,0.000,0.115,-0.011,0.000,0.004,0.024,-84.525,0.004,-0.002,-0.053,0.000,-0.001,0.000,0.000,0.000,0.000,-0.268,-0.009,0.300,0.000,1,1,1,1,0.002,0.006,0.048,0.301,0.003,0.003,-0.001,-0.001,0.301,0.003,0.000,0
20260703_215709,case01_boxes_2layer,6,213.5,1.000,11.920,599.449,-1.419,743.481,-10.422,0.000,0.984,37.684,-0.112,0.000,-0.001,0.111,-0.012,0.000,0.005,0.024,-84.530,0.003,-0.001,-0.056,0.000,-0.001,0.000,0.000,-0.001,0.000,-0.267,-0.009,0.298,0.000,1,1,1,1,0.002,0.006,0.047,0.300,0.002,0.002,-0.001,-0.001,0.300,0.002,0.000,0
20260703_215709,case01_boxes_2layer,6,213.5,1.000,12.020,598.408,-1.419,743.580,-10.432,0.000,0.984,37.723,-0.108,0.000,-0.002,0.107,-0.012,0.000,0.005,0.024,-84.536,0.003,-0.001,-0.060,0.000,-0.001,0.000,0.000,0.000,0.000,-0.268,-0.009,0.296,0.000,1,1,1,1,0.002,0.006,0.047,0.300,0.002,0.002,-0.001,-0.001,0.300,0.002,0.000,0
20260703_215709,case01_boxes_2layer,6,213.5,1.000,12.120,597.366,-1.419,743.678,-10.443,0.000,0.983,37.760,-0.104,0.000,-0.003,0.103,-0.013,0.000,0.005,0.024,-84.543,0.003,-0.001,-0.063,0.000,-0.002,0.000,0.000,-0.001,0.000,-0.267,-0.009,0.295,0.000,1,1,1,1,0.002,0.006,0.047,0.299,0.002,0.002,-0.001,-0.001,0.299,0.002,0.000,0
20260703_215709,case01_boxes_2layer,6,213.5,1.000,12.220,596.323,-1.419,743.776,-10.453,0.000,0.983,37.796,-0.101,0.000,-0.004,0.100,-0.013,0.000,0.006,0.024,-84.549,0.003,-0.001,-0.066,0.000,-0.002,0.000,0.000,0.000,0.000,-0.260,-0.009,0.293,0.000,1,1,1,1,0.002,0.006,0.047,0.299,0.002,0.002,-0.001,-0.001,0.299,0.002,0.000,0
20260703_215709,case01_boxes_2layer,6,213.5,1.000,12.320,595.279,-1.419,743.874,-10.463,0.000,0.983,37.831,-0.097,0.000,-0.004,0.096,-0.013,0.000,0.006,0.024,-84.556,0.003,-0.001,-0.068,0.000,-0.002,0.000,0.000,0.000,0.000,-0.256,-0.008,0.292,0.000,1,1,1,1,0.002,0.006,0.046,0.298,0.003,0.003,-0.001,-0.001,0.298,0.003,0.000,0
20260703_215709,case01_boxes_2layer,6,213.5,1.000,12.420,594.234,-1.419,743.972,-10.472,0.000,0.982,37.864,-0.094,0.000,-0.003,0.093,-0.012,0.000,0.006,0.024,-84.563,0.002,-0.001,-0.069,0.000,-0.002,0.000,0.000,0.000,0.000,-0.279,-0.009,0.291,0.000,1,1,1,1,0.002,0.006,0.046,0.298,0.002,0.002,-0.001,-0.001,0.298,0.002,0.000,0
20260703_215709,case01_boxes_2layer,6,213.5,1.000,12.520,593.189,-1.419,744.069,-10.481,0.000,0.982,37.897,-0.091,0.000,-0.004,0.090,-0.013,0.000,0.006,0.024,-84.570,0.002,-0.001,-0.070,0.000,-0.002,0.000,0.000,0.000,0.000,-0.275,-0.009,0.289,0.000,1,1,1,1,0.002,0.006,0.046,0.297,0.002,0.002,-0.001,-0.001,0.297,0.002,0.000,0
20260703_215709,case01_boxes_2layer,6,213.5,1.000,12.620,592.142,-1.419,744.167,-10.490,0.000,0.981,37.928,-0.087,0.000,-0.004,0.087,-0.013,0.000,0.006,0.023,-84.577,0.001,-0.001,-0.071,0.000,-0.002,0.000,0.000,0.000,0.000,-0.272,-0.009,0.288,0.000,1,1,1,1,0.002,0.006,0.046,0.297,0.002,0.002,-0.001,-0.001,0.297,0.002,0.000,0
20260703_215709,case01_boxes_2layer,6,213.5,1.000,12.720,591.094,-1.419,744.265,-10.498,0.000,0.981,37.958,-0.084,0.000,-0.006,0.083,-0.014,0.000,0.006,0.023,-84.584,0.001,-0.001,-0.073,0.000,-0.002,0.000,0.000,0.000,0.000,-0.273,-0.009,0.287,0.000,1,1,1,1,0.002,0.006,0.046,0.296,0.002,0.002,-0.001,-0.001,0.296,0.002,0.000,0
20260703_215709,case01_boxes_2layer,6,213.5,1.000,12.820,590.046,-1.419,744.363,-10.506,0.000,0.980,37.987,-0.082,0.000,-0.008,0.080,-0.016,0.000,0.007,0.023,-84.592,0.001,-0.001,-0.075,0.000,-0.002,0.000,0.000,0.000,0.000,-0.273,-0.009,0.286,0.000,1,1,1,1,0.002,0.006,0.046,0.296,0.002,0.002,-0.001,-0.001,0.296,0.002,0.000,0
20260703_215709,case01_boxes_2layer,6,213.5,1.000,12.920,588.997,-1.419,744.461,-10.514,0.000,0.979,38.015,-0.079,0.000,-0.009,0.078,-0.017,0.000,0.007,0.023,-84.600,0.001,-0.001,-0.078,0.000,-0.002,0.000,0.000,-0.001,0.000,-0.273,-0.009,0.285,0.000,1,1,1,1,0.002,0.006,0.045,0.295,0.003,0.003,-0.001,-0.001,0.295,0.003,0.000,0
20260703_215709,case01_boxes_2layer,6,213.5,1.000,13.020,587.947,-1.419,744.559,-10.522,0.000,0.978,38.042,-0.076,0.000,-0.009,0.075,-0.016,0.000,0.007,0.023,-84.608,0.001,-0.001,-0.081,0.000,-0.002,0.000,0.000,0.000,0.000,-0.299,-0.010,0.283,0.000,1,1,1,1,0.002,0.006,0.045,0.295,0.003,0.003,-0.001,-0.001,0.295,0.003,0.000,0
20260703_215709,case01_boxes_2layer,6,213.5,1.000,13.120,586.896,-1.419,744.656,-10.529,0.000,0.977,38.068,-0.074,0.000,-0.013,0.072,-0.020,0.000,0.007,0.023,-84.616,0.001,-0.001,-0.086,0.000,-0.002,0.000,0.000,-0.001,0.000,-0.331,-0.011,0.282,0.000,1,1,1,1,0.002,0.006,0.045,0.294,0.002,0.002,-0.001,-0.001,0.294,0.002,0.000,0
20260703_215709,case01_boxes_2layer,6,213.5,1.000,13.220,585.845,-1.419,744.753,-10.536,0.000,0.975,38.093,-0.071,0.000,-0.014,0.070,-0.020,0.000,0.007,0.023,-84.625,0.002,-0.001,-0.092,0.000,-0.002,0.000,0.000,-0.001,0.000,-0.321,-0.011,0.281,0.000,1,1,1,1,0.002,0.006,0.045,0.294,0.003,0.003,-0.001,-0.001,0.294,0.003,0.000,0
20260703_215709,case01_boxes_2layer,6,213.5,1.000,13.320,584.793,-1.419,744.851,-10.543,0.000,0.974,38.117,-0.069,0.000,-0.016,0.067,-0.022,0.000,0.007,0.023,-84.635,0.002,-0.001,-0.098,0.000,-0.002,0.000,0.000,-0.001,0.000,-0.314,-0.010,0.280,0.000,1,1,1,1,0.002,0.006,0.045,0.294,0.002,0.002,-0.001,-0.001,0.294,0.002,0.000,0
20260703_215709,case01_boxes_2layer,6,213.5,1.000,13.420,583.740,-1.419,744.948,-10.550,0.000,0.972,38.140,-0.066,0.000,-0.015,0.065,-0.021,0.000,0.007,0.023,-84.646,0.002,-0.001,-0.103,0.000,-0.002,0.000,0.000,-0.001,0.000,-0.304,-0.010,0.279,0.000,1,1,1,1,0.002,0.006,0.045,0.293,0.003,0.003,-0.001,-0.001,0.293,0.003,0.000,0
20260703_215709,case01_boxes_2layer,6,213.5,1.000,13.520,582.687,-1.419,745.045,-10.556,0.000,0.971,38.163,-0.064,0.000,-0.012,0.062,-0.018,0.000,0.008,0.023,-84.656,0.002,-0.001,-0.106,0.000,-0.002,0.000,0.000,0.000,0.000,-0.333,-0.011,0.279,0.000,1,1,1,1,0.002,0.006,0.044,0.293,0.003,0.003,-0.001,-0.001,0.293,0.003,0.000,0
20260703_215709,case01_boxes_2layer,6,213.5,1.000,13.620,581.633,-1.419,745.141,-10.562,0.000,0.970,38.184,-0.062,0.000,-0.012,0.060,-0.018,0.000,0.008,0.023,-84.667,0.002,-0.001,-0.106,0.000,-0.002,0.000,0.000,0.000,0.000,-0.317,-0.010,0.278,0.000,1,1,1,1,0.002,0.006,0.044,0.293,0.002,0.002,-0.001,-0.001,0.293,0.002,0.000,0
20260703_215709,case01_boxes_2layer,6,213.5,1.000,13.720,580.578,-1.419,745.238,-10.568,0.000,0.969,38.205,-0.059,0.000,-0.012,0.058,-0.017,0.000,0.008,0.022,-84.677,0.002,-0.001,-0.105,0.000,-0.002,0.000,0.000,0.000,0.000,-0.308,-0.010,0.277,0.000,1,1,1,1,0.002,0.006,0.044,0.292,0.002,0.002,-0.001,-0.001,0.292,0.002,0.000,0
20260703_215709,case01_boxes_2layer,6,213.5,1.000,13.820,579.523,-1.419,745.335,-10.574,0.000,0.967,38.226,-0.058,0.000,-0.014,0.056,-0.019,0.000,0.008,0.022,-84.688,0.001,-0.001,-0.104,0.000,-0.002,0.000,0.000,0.000,0.000,-0.302,-0.010,0.276,0.000,1,1,1,1,0.002,0.006,0.044,0.292,0.002,0.002,-0.001,-0.001,0.292,0.002,0.000,0
20260703_215709,case01_boxes_2layer,6,213.5,1.000,13.920,578.467,-1.419,745.431,-10.580,0.000,0.966,38.245,-0.056,0.000,-0.014,0.054,-0.019,0.000,0.008,0.022,-84.698,0.001,-0.001,-0.104,0.000,-0.002,0.000,0.000,0.000,0.000,-0.293,-0.010,0.275,0.000,1,1,1,1,0.002,0.006,0.044,0.292,0.003,0.003,-0.001,-0.001,0.292,0.003,0.000,0
20260703_215709,case01_boxes_2layer,6,213.5,1.000,14.020,577.411,-1.419,745.528,-10.585,0.000,0.965,38.264,-0.054,0.000,-0.013,0.052,-0.018,0.000,0.008,0.022,-84.708,0.001,-0.001,-0.103,0.000,-0.002,0.000,0.000,0.000,0.000,-0.320,-0.011,0.274,0.000,1,1,1,1,0.002,0.006,0.044,0.291,0.003,0.003,-0.001,-0.001,0.291,0.003,0.000,0
20260703_215709,case01_boxes_2layer,6,213.5,1.000,14.120,576.354,-1.419,745.624,-10.590,0.000,0.963,38.282,-0.052,0.000,-0.014,0.050,-0.018,0.000,0.008,0.022,-84.719,0.000,-0.001,-0.103,0.000,-0.002,0.000,0.000,0.000,0.000,-0.310,-0.010,0.274,0.000,1,1,1,1,0.002,0.006,0.044,0.291,0.002,0.002,-0.001,-0.001,0.291,0.002,0.000,0
20260703_215709,case01_boxes_2layer,6,213.5,1.000,14.220,575.296,-1.419,745.720,-10.595,0.000,0.962,38.299,-0.050,0.000,-0.014,0.049,-0.019,0.000,0.008,0.022,-84.729,0.000,-0.001,-0.103,0.000,-0.002,0.000,0.000,0.000,0.000,-0.310,-0.010,0.273,0.000,1,1,1,1,0.002,0.006,0.044,0.291,0.002,0.002,-0.001,-0.001,0.291,0.002,0.000,0
20260703_215709,case01_boxes_2layer,6,213.5,1.000,14.320,574.239,-1.419,745.816,-10.600,0.000,0.960,38.316,-0.048,0.000,-0.016,0.047,-0.020,0.000,0.008,0.022,-84.739,0.000,-0.001,-0.104,0.000,-0.002,0.000,0.000,0.000,0.000,-0.304,-0.010,0.272,0.000,1,1,1,1,0.002,0.006,0.044,0.291,0.002,0.002,-0.001,-0.001,0.291,0.002,0.000,0
20260703_215709,case01_boxes_2layer,6,213.5,1.000,14.420,573.180,-1.419,745.911,-10.605,0.000,0.959,38.333,-0.047,0.000,-0.017,0.045,-0.021,0.000,0.008,0.022,-84.750,0.000,-0.001,-0.105,0.000,-0.002,0.000,0.000,0.000,0.000,-0.303,-0.010,0.272,0.000,1,1,1,1,0.002,0.006,0.043,0.290,0.003,0.003,-0.001,-0.001,0.290,0.003,0.000,0
20260703_215709,case01_boxes_2layer,6,213.5,1.000,14.520,572.121,-1.419,746.007,-10.609,0.000,0.957,38.348,-0.045,0.000,-0.017,0.043,-0.021,0.000,0.008,0.022,-84.761,0.000,-0.001,-0.107,0.000,-0.002,0.000,0.000,0.000,0.000,-0.332,-0.011,0.271,0.000,1,1,1,1,0.002,0.006,0.043,0.290,0.003,0.003,-0.001,-0.001,0.290,0.003,0.000,0
20260703_215709,case01_boxes_2layer,6,213.5,1.000,14.620,571.062,-1.419,746.102,-10.614,0.000,0.955,38.363,-0.044,0.000,-0.018,0.042,-0.021,0.000,0.008,0.022,-84.771,0.000,-0.001,-0.109,0.000,-0.002,0.000,0.000,0.000,0.000,-0.332,-0.011,0.270,0.000,1,1,1,1,0.002,0.006,0.043,0.290,0.003,0.003,-0.001,-0.001,0.290,0.003,0.000,0
20260703_215709,case01_boxes_2layer,6,213.5,1.000,14.720,570.003,-1.419,746.197,-10.618,0.000,0.953,38.378,-0.042,0.000,-0.019,0.040,-0.023,0.000,0.009,0.022,-84.783,0.000,-0.001,-0.112,0.000,-0.002,0.000,0.000,-0.001,0.000,-0.325,-0.011,0.270,0.000,1,1,1,1,0.002,0.006,0.043,0.290,0.002,0.002,-0.001,-0.001,0.290,0.002,0.000,0
20260703_215709,case01_boxes_2layer,6,213.5,1.000,14.820,568.942,-1.419,746.292,-10.622,0.000,0.951,38.392,-0.041,0.000,-0.019,0.039,-0.023,0.000,0.009,0.022,-84.794,0.001,-0.001,-0.114,0.000,-0.002,0.000,0.000,0.000,0.000,-0.319,-0.011,0.269,0.000,1,1,1,1,0.002,0.006,0.043,0.289,0.002,0.002,-0.001,-0.001,0.289,0.002,0.000,0
20260703_215709,case01_boxes_2layer,6,213.5,1.000,14.920,567.882,-1.419,746.387,-10.626,0.000,0.949,38.406,-0.040,0.000,-0.019,0.038,-0.023,0.000,0.009,0.022,-84.806,0.001,-0.001,-0.117,0.000,-0.002,0.000,0.000,0.000,0.000,-0.319,-0.011,0.269,0.000,1,1,1,1,0.002,0.006,0.043,0.289,0.003,0.003,-0.001,-0.001,0.289,0.003,0.000,0
20260703_215709,case01_boxes_2layer,6,213.5,1.000,15.020,566.821,-1.419,746.482,-10.630,0.000,0.947,38.419,-0.038,0.000,-0.020,0.036,-0.024,0.000,0.009,0.022,-84.818,0.001,-0.001,-0.119,0.000,-0.003,0.000,0.000,0.000,0.000,-0.348,-0.011,0.268,0.000,1,1,1,1,0.002,0.006,0.043,0.289,0.003,0.003,-0.001,-0.001,0.289,0.003,0.000,0
20260703_215709,case01_boxes_2layer,6,213.5,1.000,15.120,565.760,-1.419,746.576,-10.633,0.000,0.945,38.431,-0.037,0.000,-0.020,0.035,-0.024,0.000,0.009,0.022,-84.830,0.001,0.000,-0.123,0.000,-0.003,0.000,0.000,0.000,0.000,-0.341,-0.011,0.267,0.000,1,1,1,1,0.002,0.006,0.043,0.289,0.002,0.002,-0.001,-0.001,0.289,0.002,0.000,0
20260703_215709,case01_boxes_2layer,6,213.5,1.000,15.220,564.698,-1.419,746.671,-10.637,0.000,0.943,38.443,-0.036,0.000,-0.021,0.034,-0.024,0.000,0.009,0.022,-84.842,0.002,0.000,-0.124,0.000,-0.003,0.000,0.000,0.000,0.000,-0.340,-0.011,0.267,0.000,1,1,1,1,0.002,0.006,0.043,0.288,0.002,0.002,-0.001,-0.001,0.288,0.002,0.000,0
20260703_215709,case01_boxes_2layer,6,213.5,1.000,15.320,563.636,-1.419,746.764,-10.640,0.000,0.941,38.455,-0.035,0.000,-0.022,0.033,-0.025,0.000,0.009,0.022,-84.855,0.002,0.000,-0.127,0.000,-0.003,0.000,0.000,-0.001,0.000,-0.336,-0.011,0.266,0.000,1,1,1,1,0.002,0.006,0.043,0.288,0.002,0.002,-0.001,-0.001,0.288,0.002,0.000,0
20260703_215709,case01_boxes_2layer,6,213.5,1.000,15.420,562.574,-1.419,746.858,-10.644,0.000,0.939,38.466,-0.034,0.000,-0.023,0.031,-0.026,0.000,0.010,0.022,-84.868,0.002,0.000,-0.130,0.000,-0.003,0.000,0.000,-0.001,0.000,-0.331,-0.011,0.266,0.000,1,1,1,1,0.002,0.006,0.043,0.288,0.003,0.003,-0.001,-0.001,0.288,0.003,0.000,0
20260703_215709,case01_boxes_2layer,6,213.5,1.000,15.520,561.511,-1.419,746.952,-10.647,0.000,0.936,38.477,-0.032,0.000,-0.022,0.030,-0.025,0.000,0.010,0.022,-84.881,0.002,0.000,-0.132,0.000,-0.003,0.000,0.000,0.000,0.000,-0.365,-0.012,0.266,0.000,1,1,1,1,0.002,0.006,0.043,0.288,0.003,0.003,-0.001,-0.001,0.288,0.003,0.000,0
20260703_215709,case01_boxes_2layer,6,213.5,1.000,15.620,560.448,-1.419,747.045,-10.650,0.000,0.934,38.488,-0.031,0.000,-0.023,0.029,-0.026,0.000,0.010,0.022,-84.895,0.002,0.000,-0.135,0.000,-0.003,0.000,0.000,0.000,0.000,-0.358,-0.012,0.265,0.000,1,1,1,1,0.002,0.006,0.042,0.288,0.003,0.003,-0.001,-0.001,0.288,0.003,0.000,0
20260703_215709,case01_boxes_2layer,6,213.5,1.000,15.720,559.385,-1.419,747.138,-10.653,0.000,0.932,38.498,-0.030,0.000,-0.025,0.028,-0.027,0.000,0.010,0.021,-84.908,0.002,0.000,-0.137,0.000,-0.003,0.000,0.000,-0.001,0.000,-0.351,-0.012,0.265,0.000,1,1,1,1,0.002,0.006,0.042,0.288,0.002,0.002,-0.001,-0.001,0.288,0.002,0.000,0
20260703_215709,case01_boxes_2layer,6,213.5,1.000,15.820,558.321,-1.419,747.231,-10.656,0.000,0.929,38.508,-0.029,0.000,-0.025,0.027,-0.028,0.000,0.010,0.021,-84.922,0.003,0.000,-0.140,0.000,-0.003,0.000,0.000,-0.001,0.000,-0.348,-0.011,0.264,0.000,1,1,1,1,0.002,0.006,0.042,0.287,0.003,0.003,-0.001,-0.001,0.287,0.003,0.000,0
20260703_215709,case01_boxes_2layer,6,213.5,1.000,15.920,557.257,-1.419,747.323,-10.659,0.000,0.927,38.517,-0.028,0.000,-0.025,0.026,-0.027,0.000,0.011,0.021,-84.937,0.003,0.000,-0.142,0.000,-0.003,0.000,0.000,0.000,0.000,-0.379,-0.013,0.264,0.000,1,1,1,1,0.002,0.006,0.042,0.287,0.003,0.003,-0.001,-0.001,0.287,0.003,0.000,0
20260703_215709,case01_boxes_2layer,6,213.5,1.000,16.020,556.193,-1.419,747.416,-10.662,0.000,0.924,38.526,-0.027,0.000,-0.025,0.025,-0.027,0.000,0.011,0.021,-84.951,0.003,0.000,-0.144,0.000,-0.003,0.000,0.000,0.000,0.000,-0.371,-0.012,0.264,0.000,1,1,1,1,0.002,0.006,0.042,0.287,0.003,0.003,-0.001,-0.001,0.287,0.003,0.000,0
20260703_215709,case01_boxes_2layer,6,213.5,1.000,16.120,555.129,-1.419,747.508,-10.664,0.000,0.921,38.535,-0.027,0.000,-0.026,0.024,-0.028,0.000,0.011,0.021,-84.966,0.003,0.000,-0.146,0.000,-0.003,0.000,0.000,0.000,0.000,-0.364,-0.012,0.263,0.000,1,1,1,1,0.002,0.006,0.042,0.287,0.002,0.002,-0.001,-0.001,0.287,0.002,0.000,0
20260703_215709,case01_boxes_2layer,6,213.5,1.000,16.220,554.064,-1.419,747.600,-10.667,0.000,0.919,38.543,-0.026,0.000,-0.026,0.023,-0.028,0.000,0.011,0.021,-84.980,0.002,0.000,-0.148,0.000,-0.003,0.000,0.000,0.000,0.000,-0.359,-0.012,0.263,0.000,1,1,1,1,0.002,0.006,0.042,0.287,0.002,0.002,-0.001,-0.001,0.287,0.002,0.000,0
20260703_215709,case01_boxes_2layer,6,213.5,1.000,16.320,552.999,-1.419,747.691,-10.669,0.000,0.916,38.551,-0.025,0.000,-0.027,0.023,-0.029,0.000,0.012,0.021,-84.995,0.002,0.000,-0.150,0.000,-0.003,0.000,0.000,0.000,0.000,-0.393,-0.013,0.262,0.000,1,1,1,1,0.002,0.006,0.042,0.287,0.003,0.003,-0.001,-0.001,0.287,0.003,0.000,0
20260703_215709,case01_boxes_2layer,6,213.5,1.000,16.420,551.934,-1.419,747.782,-10.672,0.000,0.913,38.559,-0.024,0.000,-0.027,0.022,-0.029,0.000,0.012,0.021,-85.011,0.002,0.000,-0.152,0.000,-0.003,0.000,0.000,0.000,0.000,-0.385,-0.013,0.262,0.000,1,1,1,1,0.002,0.006,0.042,0.287,0.003,0.003,-0.001,-0.001,0.287,0.003,0.000,0
20260703_215709,case01_boxes_2layer,6,213.5,1.000,16.520,550.869,-1.419,747.873,-10.674,0.000,0.911,38.567,-0.023,0.000,-0.029,0.021,-0.031,0.000,0.012,0.021,-85.026,0.002,0.000,-0.154,0.000,-0.003,0.000,0.000,0.000,0.000,-0.380,-0.013,0.262,0.000,1,1,1,1,0.002,0.006,0.042,0.286,0.003,0.003,-0.001,-0.001,0.286,0.003,0.000,0
20260703_215709,case01_boxes_2layer,6,213.5,1.000,16.620,549.803,-1.419,747.964,-10.677,0.000,0.908,38.574,-0.023,0.000,-0.029,0.020,-0.031,0.000,0.012,0.021,-85.042,0.002,0.000,-0.157,0.000,-0.003,0.000,0.000,-0.001,0.000,-0.374,-0.012,0.262,0.000,1,1,1,1,0.002,0.006,0.042,0.286,0.002,0.002,-0.001,-0.001,0.286,0.002,0.000,0
20260703_215709,case01_boxes_2layer,6,213.5,1.000,16.720,548.737,-1.419,748.054,-10.679,0.000,0.905,38.581,-0.022,0.000,-0.030,0.019,-0.032,0.000,0.013,0.021,-85.058,0.002,0.000,-0.159,0.000,-0.003,0.000,0.000,0.000,0.000,-0.410,-0.014,0.261,0.000,1,1,1,1,0.002,0.006,0.042,0.286,0.003,0.003,-0.001,-0.001,0.286,0.003,0.000,0
20260703_215709,case01_boxes_2layer,6,213.5,1.000,16.820,547.671,-1.419,748.144,-10.681,0.000,0.902,38.588,-0.021,0.000,-0.029,0.019,-0.031,0.000,0.013,0.021,-85.074,0.002,0.000,-0.162,0.000,-0.003,0.000,0.000,0.000,0.000,-0.399,-0.013,0.261,0.000,1,1,1,1,0.002,0.006,0.042,0.286,0.003,0.003,-0.001,-0.001,0.286,0.003,0.000,0
20260703_215709,case01_boxes_2layer,6,213.5,1.000,16.920,546.605,-1.419,748.234,-10.683,0.000,0.899,38.594,-0.021,0.000,-0.030,0.018,-0.032,0.000,0.013,0.021,-85.090,0.002,0.000,-0.164,0.000,-0.003,0.000,0.000,0.000,0.000,-0.392,-0.013,0.261,0.000,1,1,1,1,0.002,0.006,0.042,0.286,0.003,0.003,-0.001,-0.001,0.286,0.003,0.000,0
20260703_215709,case01_boxes_2layer,6,213.5,1.000,17.020,545.538,-1.419,748.324,-10.685,0.000,0.896,38.601,-0.020,0.000,-0.030,0.017,-0.032,0.000,0.013,0.021,-85.107,0.001,0.000,-0.165,0.000,-0.003,0.000,0.000,0.000,0.000,-0.384,-0.013,0.260,0.000,1,1,1,1,0.002,0.006,0.042,0.286,0.002,0.002,-0.001,-0.001,0.286,0.002,0.000,0
20260703_215709,case01_boxes_2layer,6,213.5,1.000,17.120,544.472,-1.419,748.413,-10.687,0.000,0.893,38.607,-0.019,0.000,-0.031,0.017,-0.032,0.000,0.013,0.021,-85.123,0.001,0.000,-0.167,0.000,-0.003,0.000,0.000,0.000,0.000,-0.375,-0.012,0.260,0.000,1,1,1,1,0.002,0.006,0.042,0.286,0.003,0.003,-0.001,-0.001,0.286,0.003,0.000,0
20260703_215709,case01_boxes_2layer,6,213.5,1.000,17.220,543.405,-1.419,748.502,-10.689,0.000,0.890,38.612,-0.019,0.000,-0.029,0.016,-0.031,0.000,0.013,0.021,-85.140,0.001,0.000,-0.168,0.000,-0.003,0.000,0.000,0.000,0.000,-0.408,-0.013,0.260,0.000,1,1,1,1,0.002,0.006,0.042,0.286,0.003,0.003,-0.001,-0.001,0.286,0.003,0.000,0
20260703_215709,case01_boxes_2layer,6,213.5,1.000,17.320,542.338,-1.419,748.590,-10.691,0.000,0.887,38.618,-0.018,0.000,-0.032,0.016,-0.033,0.000,0.013,0.021,-85.157,0.001,0.000,-0.169,0.000,-0.003,0.000,0.000,0.000,0.000,-0.400,-0.013,0.260,0.000,1,1,1,1,0.002,0.006,0.042,0.286,0.003,0.003,-0.001,-0.001,0.286,0.003,0.000,0
20260703_215709,case01_boxes_2layer,6,213.5,1.000,17.420,541.270,-1.419,748.679,-10.692,0.000,0.883,38.624,-0.018,0.000,-0.031,0.015,-0.033,0.000,0.013,0.021,-85.174,0.001,0.000,-0.172,0.000,-0.003,0.000,0.000,0.000,0.000,-0.393,-0.013,0.259,0.000,1,1,1,1,0.002,0.006,0.042,0.285,0.002,0.002,-0.001,-0.001,0.285,0.002,0.000,0
20260703_215709,case01_boxes_2layer,6,213.5,1.000,17.520,540.203,-1.419,748.767,-10.694,0.000,0.880,38.629,-0.017,0.000,-0.033,0.014,-0.034,0.000,0.014,0.021,-85.192,0.001,0.000,-0.173,0.000,-0.003,0.000,0.000,0.000,0.000,-0.387,-0.013,0.259,0.000,1,1,1,1,0.002,0.006,0.042,0.285,0.003,0.003,-0.001,-0.001,0.285,0.003,0.000,0
20260703_215709,case01_boxes_2layer,6,213.5,1.000,17.620,539.135,-1.419,748.854,-10.696,0.000,0.877,38.634,-0.017,0.000,-0.032,0.014,-0.033,0.000,0.014,0.021,-85.209,0.001,0.000,-0.175,0.000,-0.003,0.000,0.000,0.000,0.000,-0.420,-0.014,0.259,0.000,1,1,1,1,0.002,0.006,0.042,0.285,0.003,0.003,-0.001,-0.001,0.285,0.003,0.000,0
20260703_215709,case01_boxes_2layer,6,213.5,1.000,17.720,538.068,-1.419,748.942,-10.697,0.000,0.874,38.639,-0.016,0.000,-0.034,0.013,-0.035,0.000,0.014,0.021,-85.227,0.001,0.000,-0.177,0.000,-0.004,0.000,0.000,-0.001,0.000,-0.413,-0.014,0.259,0.000,1,1,1,1,0.002,0.006,0.042,0.285,0.003,0.003,-0.001,-0.001,0.285,0.003,0.000,0
20260703_215709,case01_boxes_2layer,6,213.5,1.000,17.820,537.000,-1.419,749.028,-10.699,0.000,0.870,38.643,-0.016,0.000,-0.033,0.013,-0.035,0.000,0.014,0.021,-85.245,0.001,0.000,-0.179,0.000,-0.004,0.000,0.000,0.000,0.000,-0.405,-0.013,0.259,0.000,1,1,1,1,0.002,0.006,0.042,0.285,0.002,0.002,-0.001,-0.001,0.285,0.002,0.000,0
20260703_215709,case01_boxes_2layer,6,213.5,1.000,17.920,535.932,-1.419,749.115,-10.700,0.000,0.867,38.648,-0.015,0.000,-0.034,0.012,-0.035,0.000,0.014,0.021,-85.263,0.001,0.000,-0.182,0.000,-0.004,0.000,0.000,0.000,0.000,-0.397,-0.013,0.258,0.000,1,1,1,1,0.002,0.006,0.041,0.285,0.003,0.003,-0.001,-0.001,0.285,0.003,0.000,0
20260703_215709,case01_boxes_2layer,6,213.5,1.000,18.020,534.864,-1.419,749.201,-10.702,0.000,0.864,38.652,-0.015,0.000,-0.033,0.012,-0.034,0.000,0.014,0.021,-85.281,0.001,0.000,-0.183,0.000,-0.004,0.000,0.000,0.000,0.000,-0.433,-0.014,0.258,0.000,1,1,1,1,0.002,0.006,0.041,0.285,0.003,0.003,-0.001,-0.001,0.285,0.003,0.000,0
20260703_215709,case01_boxes_2layer,6,213.5,1.000,18.120,533.795,-1.419,749.287,-10.703,0.000,0.860,38.656,-0.014,0.000,-0.036,0.011,-0.037,0.000,0.014,0.021,-85.300,0.001,0.000,-0.185,0.000,-0.004,0.000,0.000,0.000,0.000,-0.423,-0.014,0.258,0.000,1,1,1,1,0.002,0.006,0.041,0.285,0.003,0.003,-0.001,-0.001,0.285,0.003,0.000,0
20260703_215709,case01_boxes_2layer,6,213.5,1.000,18.220,532.727,-1.419,749.373,-10.705,0.000,0.856,38.660,-0.014,0.000,-0.035,0.011,-0.036,0.000,0.014,0.021,-85.318,0.001,0.000,-0.187,0.000,-0.004,0.000,0.000,0.000,0.000,-0.416,-0.014,0.258,0.000,1,1,1,1,0.002,0.006,0.041,0.285,0.002,0.002,-0.001,-0.001,0.285,0.002,0.000,0
20260703_215709,case01_boxes_2layer,6,213.5,1.000,18.320,531.658,-1.419,749.458,-10.706,0.000,0.853,38.664,-0.014,0.000,-0.036,0.011,-0.037,0.000,0.014,0.021,-85.337,0.001,0.000,-0.189,0.000,-0.004,0.000,0.000,-0.001,0.000,-0.454,-0.015,0.258,0.000,1,1,1,1,0.002,0.006,0.041,0.285,0.003,0.003,-0.001,-0.001,0.285,0.003,0.000,0
20260703_215709,case01_boxes_2layer,6,213.5,1.000,18.420,530.589,-1.419,749.543,-10.707,0.000,0.849,38.668,-0.013,0.000,-0.035,0.010,-0.036,0.000,0.014,0.021,-85.357,0.002,0.000,-0.192,0.000,-0.004,0.000,0.000,0.000,0.000,-0.443,-0.015,0.257,0.000,1,1,1,1,0.002,0.006,0.041,0.285,0.003,0.003,-0.001,-0.001,0.285,0.003,0.000,0
20260703_215709,case01_boxes_2layer,6,213.5,1.000,18.520,529.520,-1.419,749.627,-10.709,0.000,0.846,38.671,-0.013,0.000,-0.037,0.010,-0.038,0.000,0.015,0.021,-85.376,0.002,0.000,-0.194,0.000,-0.004,0.000,0.000,0.000,0.000,-0.434,-0.014,0.257,0.000,1,1,1,1,0.002,0.006,0.041,0.285,0.003,0.003,0.000,0.000,0.285,0.003,0.000,0
20260703_215709,case01_boxes_2layer,6,213.5,1.000,18.620,528.451,-1.419,749.712,-10.710,0.000,0.842,38.674,-0.012,0.000,-0.037,0.009,-0.037,0.000,0.015,0.021,-85.396,0.002,0.000,-0.196,0.000,-0.004,0.000,0.000,0.000,0.000,-0.425,-0.014,0.257,0.000,1,1,1,1,0.002,0.006,0.041,0.285,0.002,0.002,0.000,0.000,0.285,0.002,0.000,0
20260703_215709,case01_boxes_2layer,6,213.5,1.000,18.720,527.382,-1.419,749.795,-10.711,0.000,0.838,38.678,-0.012,0.000,-0.037,0.009,-0.038,0.000,0.015,0.021,-85.415,0.002,0.000,-0.198,0.000,-0.004,0.000,0.000,0.000,0.000,-0.463,-0.015,0.257,0.000,1,1,1,1,0.002,0.006,0.041,0.284,0.003,0.003,0.000,0.000,0.284,0.003,0.000,0
20260703_215709,case01_boxes_2layer,6,213.5,1.000,18.820,526.313,-1.419,749.879,-10.712,0.000,0.834,38.681,-0.012,0.000,-0.037,0.009,-0.038,0.000,0.015,0.021,-85.435,0.002,0.000,-0.200,0.000,-0.004,0.000,0.000,0.000,0.000,-0.453,-0.015,0.257,0.000,1,1,1,1,0.002,0.006,0.041,0.284,0.003,0.003,0.000,0.000,0.284,0.003,0.000,0
20260703_215709,case01_boxes_2layer,6,213.5,1.000,18.920,525.243,-1.419,749.962,-10.713,0.000,0.831,38.684,-0.011,0.000,-0.038,0.008,-0.039,0.000,0.015,0.021,-85.455,0.002,0.000,-0.202,0.000,-0.004,0.000,0.000,0.000,0.000,-0.445,-0.015,0.257,0.000,1,1,1,1,0.002,0.006,0.041,0.284,0.003,0.003,0.000,0.000,0.284,0.003,0.000,0
20260703_215709,case01_boxes_2layer,6,213.5,1.000,19.020,524.174,-1.419,750.044,-10.715,0.000,0.827,38.687,-0.011,0.000,-0.039,0.008,-0.040,0.000,0.016,0.021,-85.476,0.002,0.000,-0.204,0.000,-0.004,0.000,0.000,-0.001,0.000,-0.439,-0.015,0.257,0.000,1,1,1,1,0.002,0.006,0.041,0.284,0.003,0.003,0.000,0.000,0.284,0.003,0.000,0
20260703_215709,case01_boxes_2layer,6,213.5,1.000,19.120,523.105,-1.419,750.127,-10.716,0.000,0.823,38.690,-0.011,0.000,-0.039,0.008,-0.040,0.000,0.016,0.021,-85.496,0.002,0.000,-0.206,0.000,-0.004,0.000,0.000,0.000,0.000,-0.476,-0.016,0.256,0.000,1,1,1,1,0.002,0.006,0.041,0.284,0.003,0.003,0.000,0.000,0.284,0.003,0.000,0
20260703_215709,case01_boxes_2layer,6,213.5,1.000,19.220,522.035,-1.419,750.209,-10.717,0.000,0.819,38.692,-0.011,0.000,-0.040,0.007,-0.041,0.000,0.016,0.021,-85.517,0.002,0.000,-0.209,0.000,-0.004,0.000,0.000,-0.001,0.000,-0.469,-0.015,0.256,0.000,1,1,1,1,0.002,0.006,0.041,0.284,0.003,0.003,0.000,0.000,0.284,0.003,0.000,0
20260703_215709,case01_boxes_2layer,6,213.5,1.000,19.320,520.965,-1.419,750.290,-10.718,0.000,0.815,38.695,-0.010,0.000,-0.040,0.007,-0.040,0.000,0.016,0.021,-85.539,0.002,0.000,-0.212,0.000,-0.004,0.000,0.000,0.000,0.000,-0.459,-0.015,0.256,0.000,1,1,1,1,0.002,0.006,0.041,0.284,0.003,0.003,0.000,0.000,0.284,0.003,0.000,0
20260703_215709,case01_boxes_2layer,6,213.5,1.000,19.420,519.895,-1.419,750.371,-10.719,0.000,0.811,38.697,-0.010,0.000,-0.042,0.007,-0.043,0.000,0.016,0.021,-85.560,0.002,0.000,-0.214,0.000,-0.004,0.000,0.000,-0.001,0.000,-0.448,-0.015,0.256,0.000,1,1,1,1,0.002,0.006,0.041,0.284,0.003,0.003,0.000,0.000,0.284,0.003,0.000,0
20260703_215709,case01_boxes_2layer,6,213.5,1.000,19.520,518.825,-1.419,750.452,-10.720,0.000,0.806,38.700,-0.010,0.000,-0.041,0.007,-0.042,0.000,0.017,0.021,-85.582,0.002,0.000,-0.217,0.000,-0.004,0.000,0.000,0.000,0.000,-0.488,-0.016,0.256,0.000,1,1,1,1,0.002,0.006,0.041,0.284,0.003,0.003,0.000,0.000,0.284,0.003,0.000,0
20260703_215709,case01_boxes_2layer,6,213.5,1.000,19.620,517.755,-1.419,750.532,-10.721,0.000,0.802,38.702,-0.009,0.000,-0.041,0.006,-0.041,0.000,0.017,0.021,-85.603,0.002,0.000,-0.219,0.000,-0.004,0.000,0.000,0.000,0.000,-0.477,-0.016,0.256,0.000,1,1,1,1,0.002,0.006,0.041,0.284,0.003,0.003,0.000,0.000,0.284,0.003,0.000,0
20260703_215709,case01_boxes_2layer,6,213.5,1.000,19.720,516.685,-1.419,750.612,-10.722,0.000,0.798,38.704,-0.009,0.000,-0.043,0.006,-0.044,0.000,0.017,0.021,-85.626,0.002,0.000,-0.222,0.000,-0.004,0.000,0.000,-0.001,0.000,-0.468,-0.015,0.256,0.000,1,1,1,1,0.002,0.006,0.041,0.284,0.003,0.003,0.000,0.000,0.284,0.003,0.000,0
20260703_215709,case01_boxes_2layer,6,213.5,1.000,19.820,515.614,-1.419,750.691,-10.722,0.000,0.794,38.706,-0.009,0.000,-0.043,0.006,-0.043,0.000,0.017,0.021,-85.648,0.002,0.000,-0.224,0.000,-0.004,0.000,0.000,0.000,0.000,-0.457,-0.015,0.256,0.000,1,1,1,1,0.002,0.006,0.041,0.284,0.003,0.003,0.000,0.000,0.284,0.003,0.000,0
20260703_215709,case01_boxes_2layer,6,213.5,1.000,19.920,514.544,-1.419,750.770,-10.723,0.000,0.790,38.708,-0.009,0.000,-0.042,0.006,-0.043,0.000,0.017,0.021,-85.671,0.002,0.000,-0.225,0.000,-0.004,0.000,0.000,0.000,0.000,-0.497,-0.016,0.256,0.000,1,1,1,1,0.002,0.006,0.041,0.284,0.003,0.003,0.000,0.000,0.284,0.003,0.000,0
20260703_215709,case01_boxes_2layer,6,213.5,1.000,20.020,513.473,-1.419,750.848,-10.724,0.000,0.785,38.710,-0.009,0.000,-0.043,0.005,-0.044,0.000,0.018,0.021,-85.693,0.002,0.000,-0.228,0.000,-0.004,0.000,0.000,0.000,0.000,-0.485,-0.016,0.256,0.000,1,1,1,1,0.002,0.006,0.041,0.284,0.003,0.003,0.000,0.000,0.284,0.003,0.000,0
20260703_215709,case01_boxes_2layer,6,213.5,1.000,20.120,512.403,-1.419,750.927,-10.725,0.000,0.781,38.712,-0.008,0.000,-0.044,0.005,-0.045,0.000,0.018,0.021,-85.716,0.002,0.000,-0.229,0.000,-0.004,0.000,0.000,0.000,0.000,-0.477,-0.016,0.255,0.000,1,1,1,1,0.002,0.006,0.041,0.284,0.003,0.003,0.000,0.000,0.284,0.003,0.000,0
20260703_215709,case01_boxes_2layer,6,213.5,1.000,20.220,511.332,-1.419,751.004,-10.726,0.000,0.776,38.714,-0.008,0.000,-0.045,0.005,-0.046,0.000,0.018,0.021,-85.740,0.002,0.000,-0.232,0.000,-0.004,0.000,0.000,-0.001,0.000,-0.468,-0.015,0.255,0.000,1,1,1,1,0.002,0.006,0.041,0.284,0.003,0.003,0.000,0.000,0.284,0.003,0.000,0
20260703_215709,case01_boxes_2layer,6,213.5,1.000,20.320,510.261,-1.419,751.081,-10.727,0.000,0.772,38.716,-0.008,0.000,-0.043,0.005,-0.043,0.000,0.018,0.021,-85.763,0.002,0.000,-0.234,0.000,-0.004,0.000,0.000,0.000,0.000,-0.506,-0.017,0.255,0.000,1,1,1,1,0.002,0.006,0.041,0.284,0.003,0.003,0.000,0.000,0.284,0.003,0.000,0
20260703_215709,case01_boxes_2layer,6,213.5,1.000,20.420,509.191,-1.419,751.158,-10.727,0.000,0.767,38.717,-0.008,0.000,-0.046,0.004,-0.046,0.000,0.018,0.021,-85.787,0.002,0.000,-0.236,0.000,-0.005,0.000,0.000,0.000,0.000,-0.495,-0.016,0.255,0.000,1,1,1,1,0.002,0.006,0.041,0.284,0.003,0.003,0.000,0.000,0.284,0.003,0.000,0
20260703_215709,case01_boxes_2layer,6,213.5,1.000,20.520,508.120,-1.419,751.234,-10.728,0.000,0.763,38.719,-0.008,0.000,-0.046,0.004,-0.047,0.000,0.018,0.021,-85.810,0.002,0.000,-0.239,0.000,-0.005,0.000,0.000,0.000,0.000,-0.487,-0.016,0.255,0.000,1,1,1,1,0.002,0.006,0.041,0.284,0.003,0.003,0.000,0.000,0.284,0.003,0.000,0
20260703_215709,case01_boxes_2layer,6,213.5,1.000,20.620,507.049,-1.419,751.310,-10.729,0.000,0.758,38.720,-0.007,0.000,-0.046,0.004,-0.046,0.000,0.019,0.021,-85.834,0.002,0.000,-0.241,0.000,-0.005,0.000,0.000,0.000,0.000,-0.527,-0.017,0.255,0.000,1,1,1,1,0.002,0.006,0.041,0.284,0.003,0.003,0.000,0.000,0.284,0.003,0.000,0
20260703_215709,case01_boxes_2layer,6,213.5,1.000,20.720,505.978,-1.419,751.385,-10.730,0.000,0.754,38.722,-0.007,0.000,-0.047,0.004,-0.047,0.000,0.019,0.021,-85.859,0.002,0.000,-0.243,0.000,-0.005,0.000,0.000,0.000,0.000,-0.515,-0.017,0.255,0.000,1,1,1,1,0.002,0.006,0.041,0.284,0.003,0.003,0.000,0.000,0.284,0.003,0.000,0
20260703_215709,case01_boxes_2layer,6,213.5,1.000,20.820,504.907,-1.419,751.460,-10.730,0.000,0.749,38.723,-0.007,0.000,-0.046,0.004,-0.046,0.000,0.019,0.021,-85.883,0.001,0.000,-0.245,0.000,-0.005,0.000,0.000,0.000,0.000,-0.504,-0.017,0.255,0.000,1,1,1,1,0.002,0.006,0.041,0.284,0.003,0.003,0.000,0.000,0.284,0.003,0.000,0
20260703_215709,case01_boxes_2layer,6,213.5,1.000,20.920,503.835,-1.419,751.535,-10.731,0.000,0.744,38.724,-0.007,0.000,-0.049,0.004,-0.049,0.000,0.019,0.021,-85.908,0.001,0.000,-0.247,0.000,-0.005,0.000,0.000,-0.001,0.000,-0.495,-0.016,0.255,0.000,1,1,1,1,0.002,0.006,0.041,0.283,0.003,0.003,0.000,0.000,0.283,0.003,0.000,0
20260703_215709,case01_boxes_2layer,6,213.5,1.000,21.020,502.764,-1.419,751.609,-10.732,0.000,0.739,38.726,-0.007,0.000,-0.046,0.003,-0.047,0.000,0.019,0.021,-85.933,0.001,0.000,-0.250,0.000,-0.005,0.000,0.000,0.000,0.000,-0.537,-0.018,0.255,0.000,1,1,1,1,0.002,0.006,0.041,0.283,0.003,0.003,0.000,0.000,0.283,0.003,0.000,0
20260703_215709,case01_boxes_2layer,6,213.5,1.000,21.120,501.693,-1.419,751.682,-10.732,0.000,0.735,38.727,-0.007,0.000,-0.048,0.003,-0.048,0.000,0.019,0.021,-85.958,0.001,0.000,-0.251,0.000,-0.005,0.000,0.000,0.000,0.000,-0.526,-0.017,0.255,0.000,1,1,1,1,0.002,0.006,0.041,0.283,0.003,0.003,0.000,0.000,0.283,0.003,0.000,0
20260703_215709,case01_boxes_2layer,6,213.5,1.000,21.220,500.622,-1.419,751.755,-10.733,0.000,0.730,38.728,-0.007,0.000,-0.050,0.003,-0.051,0.000,0.019,0.021,-85.983,0.001,0.000,-0.254,0.000,-0.005,0.000,0.000,-0.001,0.000,-0.517,-0.017,0.255,0.000,1,1,1,1,0.002,0.006,0.041,0.283,0.003,0.003,0.000,0.000,0.283,0.003,0.000,0
20260703_215709,case01_boxes_2layer,6,213.5,1.000,21.320,499.550,-1.419,751.828,-10.734,0.000,0.725,38.729,-0.006,0.000,-0.050,0.003,-0.050,0.000,0.020,0.021,-86.009,0.002,0.000,-0.257,0.000,-0.005,0.000,0.000,-0.001,0.000,-0.505,-0.017,0.255,0.000,1,1,1,1,0.002,0.006,0.041,0.283,0.003,0.003,0.000,0.000,0.283,0.003,0.000,0
20260703_215709,case01_boxes_2layer,6,213.5,1.000,21.420,498.479,-1.419,751.900,-10.734,0.000,0.720,38.730,-0.006,0.000,-0.049,0.003,-0.049,0.000,0.020,0.021,-86.035,0.002,0.000,-0.259,0.000,-0.005,0.000,0.000,0.000,0.000,-0.550,-0.018,0.255,0.000,1,1,1,1,0.002,0.006,0.041,0.283,0.003,0.003,0.000,0.000,0.283,0.003,0.000,0
20260703_215709,case01_boxes_2layer,6,213.5,1.000,21.520,497.407,-1.419,751.971,-10.735,0.000,0.715,38.731,-0.006,0.000,-0.050,0.003,-0.050,0.000,0.020,0.021,-86.061,0.002,0.000,-0.262,0.000,-0.005,0.000,0.000,0.000,0.000,-0.537,-0.018,0.254,0.000,1,1,1,1,0.002,0.006,0.041,0.283,0.003,0.003,0.000,0.000,0.283,0.003,0.000,0
20260703_215709,case01_boxes_2layer,6,213.5,1.000,21.620,496.336,-1.419,752.042,-10.735,0.000,0.710,38.732,-0.006,0.000,-0.051,0.002,-0.051,0.000,0.020,0.021,-86.088,0.002,0.000,-0.264,0.000,-0.005,0.000,0.000,0.000,0.000,-0.526,-0.017,0.254,0.000,1,1,1,1,0.002,0.006,0.041,0.283,0.003,0.003,0.000,0.000,0.283,0.003,0.000,0
20260703_215709,case01_boxes_2layer,6,213.5,1.000,21.720,495.264,-1.419,752.113,-10.736,0.000,0.705,38.733,-0.006,0.000,-0.052,0.002,-0.052,0.000,0.020,0.021,-86.114,0.002,0.000,-0.267,0.000,-0.005,0.000,0.000,-0.001,0.000,-0.519,-0.017,0.254,0.000,1,1,1,1,0.002,0.006,0.041,0.283,0.003,0.003,0.000,0.000,0.283,0.003,0.000,0
20260703_215709,case01_boxes_2layer,6,213.5,1.000,21.820,494.192,-1.419,752.183,-10.737,0.000,0.700,38.734,-0.006,0.000,-0.050,0.002,-0.050,0.000,0.020,0.021,-86.141,0.002,0.000,-0.269,0.000,-0.005,0.000,0.000,0.000,0.000,-0.559,-0.018,0.254,0.000,1,1,1,1,0.002,0.006,0.041,0.283,0.003,0.003,0.000,0.000,0.283,0.003,0.000,0
20260703_215709,case01_boxes_2layer,6,213.5,1.000,21.920,493.120,-1.419,752.252,-10.737,0.000,0.694,38.735,-0.006,0.000,-0.053,0.002,-0.053,0.000,0.021,0.021,-86.168,0.002,0.000,-0.272,0.000,-0.005,0.000,0.000,-0.001,0.000,-0.549,-0.018,0.254,0.000,1,1,1,1,0.002,0.006,0.041,0.283,0.003,0.003,0.000,0.000,0.283,0.003,0.000,0
20260703_215709,case01_boxes_2layer,6,213.5,1.000,22.020,492.049,-1.419,752.321,-10.738,0.000,0.689,38.735,-0.006,0.000,-0.054,0.002,-0.054,0.000,0.021,0.021,-86.196,0.002,0.000,-0.276,0.000,-0.005,0.000,0.000,-0.001,0.000,-0.541,-0.018,0.254,0.000,1,1,1,1,0.002,0.006,0.041,0.283,0.003,0.003,0.000,0.000,0.283,0.003,0.000,0
20260703_215709,case01_boxes_2layer,6,213.5,1.000,22.120,490.977,-1.419,752.389,-10.738,0.000,0.683,38.736,-0.005,0.000,-0.054,0.002,-0.054,0.000,0.021,0.021,-86.224,0.002,0.000,-0.278,0.000,-0.005,0.000,0.000,-0.001,0.000,-0.588,-0.019,0.254,0.000,1,1,1,1,0.002,0.006,0.041,0.283,0.003,0.003,0.000,0.000,0.283,0.003,0.000,0
20260703_215709,case01_boxes_2layer,6,213.5,1.000,22.220,489.905,-1.419,752.457,-10.739,0.000,0.678,38.737,-0.005,0.000,-0.054,0.002,-0.054,0.000,0.021,0.021,-86.252,0.002,0.000,-0.281,0.000,-0.005,0.000,0.000,0.000,0.000,-0.571,-0.019,0.254,0.000,1,1,1,1,0.002,0.006,0.041,0.283,0.003,0.003,0.000,0.000,0.283,0.003,0.000,0
20260703_215709,case01_boxes_2layer,6,213.5,1.000,22.320,488.833,-1.419,752.524,-10.739,0.000,0.673,38.737,-0.005,0.000,-0.053,0.002,-0.054,0.000,0.021,0.021,-86.280,0.002,0.000,-0.284,0.000,-0.005,0.000,0.000,0.000,0.000,-0.562,-0.019,0.254,0.000,1,1,1,1,0.002,0.006,0.041,0.283,0.003,0.003,0.000,0.000,0.283,0.003,0.000,0
20260703_215709,case01_boxes_2layer,6,213.5,1.000,22.420,487.761,-1.419,752.591,-10.740,0.000,0.667,38.738,-0.005,0.000,-0.057,0.002,-0.057,0.000,0.022,0.021,-86.309,0.002,0.000,-0.286,0.000,-0.005,0.000,0.000,-0.001,0.000,-0.550,-0.018,0.254,0.000,1,1,1,1,0.002,0.006,0.041,0.283,0.004,0.004,0.000,0.000,0.283,0.004,0.000,0
20260703_215709,case01_boxes_2layer,6,213.5,1.000,22.520,486.688,-1.419,752.657,-10.740,0.000,0.662,38.739,-0.005,0.000,-0.054,0.001,-0.054,0.000,0.022,0.021,-86.338,0.002,0.000,-0.288,0.000,-0.005,0.000,0.000,0.000,0.000,-0.599,-0.020,0.254,0.000,1,1,1,1,0.002,0.006,0.041,0.283,0.003,0.004,0.000,0.000,0.283,0.004,0.000,0
20260703_215709,case01_boxes_2layer,6,213.5,1.000,22.620,485.616,-1.419,752.723,-10.741,0.000,0.656,38.739,-0.005,0.000,-0.056,0.001,-0.056,0.000,0.022,0.021,-86.367,0.002,0.000,-0.291,0.000,-0.005,0.000,0.000,0.000,0.000,-0.586,-0.019,0.254,0.000,1,1,1,1,0.002,0.006,0.041,0.283,0.003,0.003,0.000,0.000,0.283,0.003,0.000,0
20260703_215709,case01_boxes_2layer,6,213.5,1.000,22.720,484.544,-1.419,752.788,-10.741,0.000,0.650,38.740,-0.005,0.000,-0.057,0.001,-0.057,0.000,0.022,0.021,-86.396,0.002,0.000,-0.294,0.000,-0.006,0.000,0.000,0.000,0.000,-0.575,-0.019,0.254,0.000,1,1,1,1,0.002,0.006,0.041,0.283,0.003,0.003,0.000,0.000,0.283,0.003,0.000,0
20260703_215709,case01_boxes_2layer,6,213.5,1.000,22.820,483.472,-1.419,752.853,-10.742,0.000,0.645,38.740,-0.005,0.000,-0.058,0.001,-0.059,0.000,0.023,0.021,-86.426,0.002,0.000,-0.296,0.000,-0.006,0.000,0.000,-0.001,0.000,-0.565,-0.019,0.254,0.000,1,1,1,1,0.002,0.006,0.041,0.283,0.004,0.004,0.000,0.000,0.283,0.004,0.000,0
20260703_215709,case01_boxes_2layer,6,213.5,1.000,22.920,482.400,-1.419,752.916,-10.742,0.000,0.639,38.740,-0.005,0.000,-0.057,0.001,-0.058,0.000,0.023,0.021,-86.456,0.002,0.000,-0.300,0.000,-0.006,0.000,0.000,0.000,0.000,-0.613,-0.020,0.254,0.000,1,1,1,1,0.002,0.006,0.041,0.283,0.003,0.004,0.000,0.000,0.283,0.004,0.000,0
20260703_215709,case01_boxes_2layer,6,213.5,1.000,23.020,481.327,-1.419,752.980,-10.743,0.000,0.633,38.741,-0.004,0.000,-0.057,0.001,-0.057,0.000,0.023,0.021,-86.486,0.002,0.000,-0.302,0.000,-0.006,0.000,0.000,0.000,0.000,-0.600,-0.020,0.254,0.000,1,1,1,1,0.002,0.006,0.041,0.283,0.003,0.003,0.000,0.000,0.283,0.003,0.000,0
20260703_215709,case01_boxes_2layer,6,213.5,1.000,23.120,480.255,-1.419,753.043,-10.743,0.000,0.627,38.741,-0.005,0.000,-0.060,0.001,-0.061,0.000,0.023,0.021,-86.517,0.002,0.000,-0.305,0.000,-0.006,0.000,0.000,-0.001,0.000,-0.588,-0.019,0.254,0.000,1,1,1,1,0.002,0.006,0.041,0.283,0.003,0.003,0.000,0.000,0.283,0.003,0.000,0
20260703_215709,case01_boxes_2layer,6,213.5,1.000,23.220,479.183,-1.419,753.105,-10.744,0.000,0.621,38.742,-0.004,0.000,-0.059,0.001,-0.060,0.000,0.024,0.021,-86.547,0.002,0.000,-0.309,0.000,-0.006,0.000,0.000,-0.001,0.000,-0.580,-0.019,0.254,0.000,1,1,1,1,0.002,0.006,0.041,0.283,0.004,0.004,0.000,0.000,0.283,0.004,0.000,0
20260703_215709,case01_boxes_2layer,6,213.5,1.000,23.320,478.110,-1.419,753.166,-10.744,0.000,0.615,38.742,-0.004,0.000,-0.059,0.001,-0.059,0.000,0.024,0.021,-86.579,0.002,0.000,-0.311,0.000,-0.006,0.000,0.000,0.000,0.000,-0.630,-0.021,0.254,0.000,1,1,1,1,0.002,0.006,0.041,0.283,0.004,0.004,0.000,0.000,0.283,0.004,0.000,0
20260703_215709,case01_boxes_2layer,6,213.5,1.000,23.420,477.038,-1.419,753.227,-10.744,0.000,0.609,38.742,-0.004,0.000,-0.061,0.001,-0.061,0.000,0.024,0.021,-86.610,0.002,0.000,-0.315,0.000,-0.006,0.000,0.000,-0.001,0.000,-0.618,-0.020,0.254,0.000,1,1,1,1,0.002,0.006,0.041,0.283,0.003,0.003,0.000,0.000,0.283,0.003,0.000,0
20260703_215709,case01_boxes_2layer,6,213.5,1.000,23.520,475.965,-1.419,753.288,-10.745,0.000,0.603,38.742,-0.004,0.000,-0.063,0.001,-0.063,0.000,0.024,0.021,-86.642,0.002,0.000,-0.318,0.000,-0.006,0.000,0.000,-0.001,0.000,-0.610,-0.020,0.254,0.000,1,1,1,1,0.002,0.006,0.041,0.283,0.003,0.003,0.000,0.000,0.283,0.003,0.000,0
20260703_215709,case01_boxes_2layer,6,213.5,1.000,23.620,474.892,-1.419,753.348,-10.745,0.000,0.597,38.743,-0.004,0.000,-0.064,0.001,-0.064,0.000,0.024,0.021,-86.674,0.003,0.000,-0.322,0.000,-0.006,0.000,0.000,-0.001,0.000,-0.598,-0.020,0.254,0.000,1,1,1,1,0.002,0.006,0.041,0.283,0.004,0.004,0.000,0.000,0.283,0.004,0.000,0
20260703_215709,case01_boxes_2layer,6,213.5,1.000,23.720,473.820,-1.419,753.407,-10.746,0.000,0.590,38.743,-0.004,0.000,-0.061,0.000,-0.061,0.000,0.025,0.021,-86.707,0.002,0.000,-0.325,0.000,-0.006,0.000,0.000,0.000,0.000,-0.645,-0.021,0.254,0.000,1,1,1,1,0.002,0.006,0.041,0.283,0.004,0.004,0.000,0.000,0.283,0.004,0.000,0
20260703_215709,case01_boxes_2layer,6,213.5,1.000,23.820,472.747,-1.419,753.465,-10.746,0.000,0.584,38.743,-0.004,0.000,-0.064,0.000,-0.064,0.000,0.025,0.021,-86.739,0.003,0.000,-0.329,0.000,-0.006,0.000,0.000,-0.001,0.000,-0.633,-0.021,0.254,0.000,1,1,1,1,0.002,0.006,0.041,0.283,0.003,0.003,0.000,0.000,0.283,0.003,0.000,0
20260703_215709,case01_boxes_2layer,6,213.5,1.000,23.920,471.674,-1.419,753.523,-10.746,0.000,0.578,38.743,-0.004,0.000,-0.063,0.000,-0.063,0.000,0.025,0.021,-86.773,0.002,0.000,-0.331,0.000,-0.006,0.000,0.000,0.000,0.000,-0.623,-0.021,0.254,0.000,1,1,1,1,0.002,0.006,0.041,0.283,0.003,0.003,0.000,0.000,0.283,0.003,0.000,0
20260703_215709,case01_boxes_2layer,6,213.5,1.000,24.020,470.602,-1.419,753.580,-10.747,0.000,0.571,38.743,-0.004,0.000,-0.065,0.000,-0.065,0.000,0.025,0.021,-86.806,0.002,0.000,-0.334,0.000,-0.006,0.000,0.000,-0.001,0.000,-0.612,-0.020,0.254,0.000,1,1,1,1,0.002,0.006,0.041,0.283,0.004,0.004,0.000,0.000,0.283,0.004,0.000,0
20260703_215709,case01_boxes_2layer,6,213.5,1.000,24.120,469.529,-1.419,753.637,-10.747,0.000,0.565,38.743,-0.004,0.000,-0.063,0.000,-0.063,0.000,0.026,0.021,-86.840,0.002,0.000,-0.335,0.000,-0.006,0.000,0.000,0.000,0.000,-0.662,-0.022,0.253,0.000,1,1,1,1,0.002,0.006,0.041,0.283,0.004,0.004,0.000,0.000,0.283,0.004,0.000,0
20260703_215709,case01_boxes_2layer,6,213.5,1.000,24.220,468.456,-1.419,753.693,-10.748,0.000,0.558,38.744,-0.004,0.000,-0.067,0.000,-0.067,0.000,0.026,0.021,-86.873,0.002,0.000,-0.339,0.000,-0.006,0.000,0.000,-0.001,0.000,-0.650,-0.021,0.253,0.000,1,1,1,1,0.002,0.006,0.041,0.283,0.003,0.003,0.000,0.000,0.283,0.003,0.000,0
20260703_215709,case01_boxes_2layer,6,213.5,1.000,24.320,467.383,-1.419,753.748,-10.748,0.000,0.552,38.744,-0.004,0.000,-0.066,0.000,-0.066,0.000,0.026,0.021,-86.908,0.002,0.000,-0.343,0.000,-0.006,0.000,0.000,0.000,0.000,-0.639,-0.021,0.253,0.000,1,1,1,1,0.002,0.006,0.041,0.283,0.003,0.003,0.000,0.000,0.283,0.003,0.000,0
20260703_215709,case01_boxes_2layer,6,213.5,1.000,24.420,466.310,-1.419,753.802,-10.748,0.000,0.545,38.744,-0.004,0.000,-0.068,0.000,-0.068,0.000,0.026,0.021,-86.942,0.002,0.000,-0.345,0.000,-0.006,0.000,0.000,-0.001,0.000,-0.631,-0.021,0.253,0.000,1,1,1,1,0.002,0.006,0.041,0.283,0.004,0.004,0.000,0.000,0.283,0.004,0.000,0
20260703_215709,case01_boxes_2layer,6,213.5,1.000,24.520,465.237,-1.419,753.856,-10.749,0.000,0.538,38.744,-0.003,0.000,-0.066,0.000,-0.066,0.000,0.027,0.021,-86.977,0.002,0.000,-0.348,0.000,-0.006,0.000,0.000,0.000,0.000,-0.684,-0.023,0.253,0.000,1,1,1,1,0.002,0.006,0.041,0.283,0.004,0.004,0.000,0.000,0.283,0.004,0.000,0
20260703_215709,case01_boxes_2layer,6,213.5,1.000,24.620,464.164,-1.419,753.910,-10.749,0.000,0.532,38.744,-0.003,0.000,-0.068,0.000,-0.068,0.000,0.027,0.021,-87.012,0.002,0.000,-0.352,0.000,-0.007,0.000,0.000,-0.001,0.000,-0.673,-0.022,0.253,0.000,1,1,1,1,0.002,0.006,0.041,0.283,0.003,0.003,0.000,0.000,0.283,0.003,0.000,0
20260703_215709,case01_boxes_2layer,6,213.5,1.000,24.720,463.091,-1.419,753.962,-10.749,0.000,0.525,38.744,-0.003,0.000,-0.070,0.000,-0.070,0.000,0.027,0.021,-87.048,0.002,0.000,-0.355,0.000,-0.007,0.000,0.000,-0.001,0.000,-0.663,-0.022,0.253,0.000,1,1,1,1,0.002,0.006,0.041,0.283,0.003,0.003,0.000,0.000,0.283,0.003,0.000,0
20260703_215709,case01_boxes_2layer,6,213.5,1.000,24.820,462.018,-1.419,754.014,-10.750,0.000,0.518,38.744,-0.003,0.000,-0.071,0.000,-0.071,0.000,0.027,0.021,-87.084,0.002,0.000,-0.360,0.000,-0.007,0.000,0.000,-0.001,0.000,-0.654,-0.022,0.253,0.000,1,1,1,1,0.002,0.006,0.041,0.283,0.004,0.004,0.000,0.000,0.283,0.004,0.000,0
20260703_215709,case01_boxes_2layer,6,213.5,1.000,24.920,460.945,-1.419,754.065,-10.750,0.000,0.511,38.744,-0.003,0.000,-0.069,0.000,-0.069,0.000,0.028,0.021,-87.120,0.003,0.000,-0.363,0.000,-0.007,0.000,0.000,0.000,0.000,-0.708,-0.023,0.253,0.000,1,1,1,1,0.002,0.006,0.041,0.283,0.004,0.004,0.000,0.000,0.283,0.004,0.000,0
20260703_215709,case01_boxes_2layer,6,213.5,1.000,25.020,459.872,-1.419,754.116,-10.750,0.000,0.504,38.744,-0.003,0.000,-0.071,0.000,-0.071,0.000,0.028,0.021,-87.157,0.003,0.000,-0.368,0.000,-0.007,0.000,0.000,-0.001,0.000,-0.699,-0.023,0.253,0.000,1,1,1,1,0.002,0.006,0.041,0.283,0.004,0.004,0.000,0.000,0.283,0.004,0.000,0
20260703_215709,case01_boxes_2layer,6,213.5,1.000,25.120,458.799,-1.419,754.166,-10.751,0.000,0.496,38.743,-0.003,0.000,-0.073,0.000,-0.073,0.000,0.028,0.021,-87.194,0.003,0.000,-0.371,0.000,-0.007,0.000,0.000,-0.001,0.000,-0.689,-0.023,0.253,0.000,1,1,1,1,0.002,0.006,0.041,0.283,0.003,0.003,0.000,0.000,0.283,0.003,0.000,0
20260703_215709,case01_boxes_2layer,6,213.5,1.000,25.220,457.726,-1.419,754.215,-10.751,0.000,0.489,38.743,-0.003,0.000,-0.073,0.000,-0.073,0.000,0.028,0.021,-87.232,0.003,0.000,-0.375,0.000,-0.007,0.000,0.000,-0.001,0.000,-0.677,-0.022,0.253,0.000,1,1,1,1,0.002,0.006,0.041,0.283,0.004,0.004,0.000,0.000,0.283,0.004,0.000,0
20260703_215709,case01_boxes_2layer,6,213.5,1.000,25.320,456.653,-1.419,754.263,-10.751,0.000,0.482,38.743,-0.003,0.000,-0.072,0.000,-0.072,0.000,0.029,0.020,-87.269,0.003,0.000,-0.379,0.000,-0.007,0.000,0.000,-0.001,0.000,-0.733,-0.024,0.253,0.000,1,1,1,1,0.002,0.006,0.041,0.283,0.004,0.004,0.000,0.000,0.283,0.004,0.000,0
20260703_215709,case01_boxes_2layer,6,213.5,1.000,25.420,455.579,-1.419,754.310,-10.752,0.000,0.475,38.743,-0.003,0.000,-0.072,-0.001,-0.072,0.000,0.029,0.020,-87.308,0.003,0.000,-0.382,0.000,-0.007,0.000,0.000,0.000,0.000,-0.723,-0.024,0.253,0.000,1,1,1,1,0.002,0.006,0.041,0.283,0.004,0.004,0.000,0.000,0.283,0.004,0.000,0
20260703_215709,case01_boxes_2layer,6,213.5,1.000,25.520,454.506,-1.419,754.357,-10.752,0.000,0.467,38.743,-0.003,0.000,-0.075,-0.001,-0.075,0.000,0.029,0.020,-87.346,0.003,0.000,-0.386,0.000,-0.007,0.000,0.000,-0.001,0.000,-0.711,-0.024,0.253,0.000,1,1,1,1,0.002,0.006,0.041,0.283,0.003,0.003,0.000,0.000,0.283,0.003,0.000,0
20260703_215709,case01_boxes_2layer,6,213.5,1.000,25.620,453.433,-1.419,754.403,-10.752,0.000,0.459,38.743,-0.003,0.000,-0.077,-0.001,-0.078,0.000,0.030,0.020,-87.385,0.003,0.000,-0.389,0.000,-0.007,0.000,0.000,-0.001,0.000,-0.703,-0.023,0.253,0.000,1,1,1,1,0.002,0.006,0.041,0.283,0.004,0.004,0.000,0.000,0.283,0.004,0.000,0
20260703_215709,case01_boxes_2layer,6,213.5,1.000,25.720,452.360,-1.419,754.449,-10.752,0.000,0.452,38.743,-0.003,0.000,-0.075,-0.001,-0.075,0.000,0.030,0.020,-87.424,0.003,0.000,-0.393,0.000,-0.007,0.000,0.000,0.000,0.000,-0.763,-0.025,0.253,0.000,1,1,1,1,0.002,0.006,0.041,0.283,0.004,0.004,0.000,0.000,0.283,0.004,0.000,0
20260703_215709,case01_boxes_2layer,6,213.5,1.000,25.820,451.286,-1.419,754.493,-10.753,0.000,0.444,38.743,-0.003,0.000,-0.078,-0.001,-0.078,0.000,0.030,0.020,-87.464,0.003,0.000,-0.398,0.000,-0.007,0.000,0.000,-0.001,0.000,-0.754,-0.025,0.253,0.000,1,1,1,1,0.002,0.006,0.041,0.283,0.004,0.004,0.000,0.000,0.283,0.004,0.000,0
20260703_215709,case01_boxes_2layer,6,213.5,1.000,25.920,450.213,-1.419,754.537,-10.753,0.000,0.436,38.742,-0.003,0.000,-0.077,-0.001,-0.077,0.000,0.030,0.020,-87.504,0.003,0.000,-0.402,0.000,-0.007,0.000,0.000,-0.001,0.000,-0.742,-0.025,0.253,0.000,1,1,1,1,0.002,0.006,0.041,0.283,0.004,0.004,0.000,0.000,0.283,0.004,0.000,0
20260703_215709,case01_boxes_2layer,6,213.5,1.000,26.020,449.140,-1.419,754.580,-10.753,0.000,0.428,38.742,-0.003,0.000,-0.079,-0.001,-0.079,0.000,0.031,0.020,-87.545,0.003,0.000,-0.406,0.000,-0.008,0.000,0.000,-0.001,0.000,-0.731,-0.024,0.253,0.000,1,1,1,1,0.002,0.006,0.041,0.283,0.003,0.003,0.000,0.000,0.283,0.003,0.000,0
20260703_215709,case01_boxes_2layer,6,213.5,1.000,26.120,448.066,-1.419,754.622,-10.753,0.000,0.421,38.742,-0.002,0.000,-0.080,-0.001,-0.080,0.000,0.031,0.020,-87.586,0.003,0.000,-0.410,0.000,-0.008,0.000,0.000,-0.001,0.000,-0.724,-0.024,0.253,0.000,1,1,1,1,0.002,0.006,0.041,0.283,0.004,0.004,0.000,0.000,0.283,0.004,0.000,0
20260703_215709,case01_boxes_2layer,6,213.5,1.000,26.220,446.993,-1.419,754.664,-10.754,0.000,0.413,38.742,-0.002,0.000,-0.078,-0.001,-0.078,0.000,0.031,0.020,-87.627,0.003,0.000,-0.413,0.000,-0.008,0.000,0.000,0.000,0.000,-0.784,-0.026,0.253,0.000,1,1,1,1,0.002,0.006,0.041,0.283,0.004,0.004,0.000,0.000,0.283,0.004,0.000,0
20260703_215709,case01_boxes_2layer,6,213.5,1.000,26.320,445.919,-1.419,754.704,-10.754,0.000,0.405,38.741,-0.002,0.000,-0.080,-0.001,-0.080,0.000,0.032,0.020,-87.669,0.003,0.000,-0.417,0.000,-0.008,0.000,0.000,-0.001,0.000,-0.774,-0.026,0.253,0.000,1,1,1,1,0.002,0.006,0.041,0.282,0.004,0.004,0.000,0.000,0.282,0.004,0.000,0
20260703_215709,case01_boxes_2layer,6,213.5,1.000,26.420,444.846,-1.419,754.744,-10.754,0.000,0.396,38.741,-0.002,0.000,-0.083,-0.001,-0.083,0.000,0.032,0.020,-87.711,0.003,0.000,-0.421,0.000,-0.008,0.000,0.000,-0.001,0.000,-0.763,-0.025,0.253,0.000,1,1,1,1,0.002,0.006,0.041,0.282,0.004,0.004,0.000,0.000,0.282,0.004,0.000,0
20260703_215709,case01_boxes_2layer,6,213.5,1.000,26.520,443.772,-1.419,754.783,-10.754,0.000,0.388,38.741,-0.002,0.000,-0.083,-0.001,-0.083,0.000,0.032,0.020,-87.754,0.003,0.000,-0.426,0.000,-0.008,0.000,0.000,-0.001,0.000,-0.755,-0.025,0.253,0.000,1,1,1,1,0.002,0.006,0.041,0.282,0.005,0.005,0.000,0.000,0.282,0.005,0.000,0
20260703_215709,case01_boxes_2layer,6,213.5,1.000,26.620,442.699,-1.419,754.821,-10.755,0.000,0.380,38.740,-0.002,0.000,-0.082,-0.001,-0.082,0.000,0.033,0.020,-87.797,0.003,0.000,-0.430,0.000,-0.008,0.000,0.000,0.000,0.000,-0.821,-0.027,0.253,0.000,1,1,1,1,0.002,0.006,0.041,0.282,0.004,0.004,0.000,0.000,0.282,0.004,0.000,0
20260703_215709,case01_boxes_2layer,6,213.5,1.000,26.720,441.625,-1.419,754.858,-10.755,0.000,0.371,38.740,-0.002,0.000,-0.085,-0.001,-0.085,0.000,0.033,0.020,-87.840,0.003,0.000,-0.435,0.000,-0.008,0.000,0.000,-0.001,0.000,-0.811,-0.027,0.253,0.000,1,1,1,1,0.002,0.006,0.041,0.282,0.004,0.004,0.000,0.000,0.282,0.004,0.000,0
20260703_215709,case01_boxes_2layer,6,213.5,1.000,26.820,440.552,-1.419,754.895,-10.755,0.000,0.363,38.740,-0.002,0.000,-0.085,-0.001,-0.085,0.000,0.033,0.020,-87.884,0.003,0.000,-0.439,0.000,-0.008,0.000,0.000,-0.001,0.000,-0.802,-0.027,0.253,0.000,1,1,1,1,0.002,0.006,0.041,0.282,0.004,0.004,0.000,0.000,0.282,0.004,0.000,0
20260703_215709,case01_boxes_2layer,6,213.5,1.000,26.920,439.478,-1.419,754.930,-10.755,0.000,0.354,38.740,-0.002,0.000,-0.086,-0.001,-0.086,0.000,0.034,0.020,-87.929,0.003,0.000,-0.444,0.000,-0.008,0.000,0.000,-0.001,0.000,-0.791,-0.026,0.253,0.000,1,1,1,1,0.002,0.006,0.041,0.282,0.004,0.004,0.000,0.000,0.282,0.004,0.000,0
20260703_215709,case01_boxes_2layer,6,213.5,1.000,27.020,438.404,-1.419,754.965,-10.755,0.000,0.346,38.739,-0.002,0.000,-0.087,-0.001,-0.087,0.000,0.034,0.020,-87.973,0.003,0.000,-0.448,0.000,-0.008,0.000,0.000,-0.001,0.000,-0.786,-0.026,0.253,0.000,1,1,1,1,0.002,0.006,0.041,0.282,0.005,0.005,0.000,0.000,0.282,0.005,0.000,0
20260703_215709,case01_boxes_2layer,6,213.5,1.000,27.120,437.331,-1.419,754.999,-10.756,0.000,0.337,38.739,-0.002,0.000,-0.088,-0.001,-0.088,0.000,0.034,0.020,-88.019,0.003,0.000,-0.453,0.000,-0.008,0.000,0.000,-0.001,0.000,-0.853,-0.028,0.253,0.000,1,1,1,1,0.002,0.006,0.041,0.282,0.004,0.004,0.000,0.000,0.282,0.004,0.000,0
20260703_215709,case01_boxes_2layer,6,213.5,1.000,27.220,436.257,-1.419,755.032,-10.756,0.000,0.328,38.738,-0.002,0.000,-0.088,-0.001,-0.088,0.000,0.035,0.020,-88.064,0.003,0.000,-0.458,0.000,-0.008,0.000,0.000,-0.001,0.000,-0.844,-0.028,0.253,0.000,1,1,1,1,0.002,0.006,0.041,0.282,0.004,0.004,0.000,0.000,0.282,0.004,0.000,0
20260703_215709,case01_boxes_2layer,6,213.5,1.000,27.320,435.184,-1.419,755.064,-10.756,0.000,0.319,38.738,-0.002,0.000,-0.090,-0.001,-0.090,0.000,0.035,0.020,-88.111,0.004,0.000,-0.463,0.000,-0.009,0.000,0.000,-0.001,0.000,-0.837,-0.028,0.253,0.000,1,1,1,1,0.002,0.006,0.041,0.282,0.004,0.004,0.000,0.000,0.282,0.004,0.000,0
20260703_215709,case01_boxes_2layer,6,213.5,1.000,27.420,434.110,-1.419,755.095,-10.756,0.000,0.310,38.738,-0.002,0.000,-0.091,-0.001,-0.091,0.000,0.035,0.020,-88.157,0.004,0.000,-0.467,0.000,-0.009,0.000,0.000,-0.001,0.000,-0.829,-0.027,0.253,0.000,1,1,1,1,0.002,0.006,0.041,0.282,0.004,0.004,0.000,0.000,0.282,0.004,0.000,0
20260703_215709,case01_boxes_2layer,6,213.5,1.000,27.520,433.036,-1.419,755.126,-10.756,0.000,0.301,38.737,-0.001,0.000,-0.092,-0.001,-0.092,0.000,0.036,0.020,-88.205,0.004,0.000,-0.472,0.000,-0.009,0.000,0.000,-0.001,0.000,-0.822,-0.027,0.253,0.000,1,1,1,1,0.002,0.006,0.041,0.282,0.005,0.005,0.000,0.000,0.282,0.005,0.000,0
20260703_215709,case01_boxes_2layer,6,213.5,1.000,27.620,431.963,-1.419,755.155,-10.756,0.000,0.292,38.737,-0.001,0.000,-0.091,-0.001,-0.091,0.000,0.036,0.020,-88.252,0.004,0.000,-0.476,0.000,-0.009,0.000,0.000,-0.001,0.000,-0.895,-0.030,0.253,0.000,1,1,1,1,0.002,0.006,0.041,0.282,0.005,0.005,0.000,0.000,0.282,0.005,0.000,0
20260703_215709,case01_boxes_2layer,6,213.5,1.000,27.720,430.889,-1.419,755.183,-10.756,0.000,0.282,38.736,-0.001,0.000,-0.095,-0.002,-0.095,0.000,0.036,0.020,-88.300,0.004,0.000,-0.482,0.000,-0.009,0.000,0.000,-0.001,0.000,-0.887,-0.029,0.253,0.000,1,1,1,1,0.002,0.006,0.041,0.282,0.004,0.004,0.000,0.000,0.282,0.004,0.000,0
20260703_215709,case01_boxes_2layer,6,213.5,1.000,27.820,429.815,-1.419,755.211,-10.757,0.000,0.273,38.736,-0.001,0.000,-0.096,-0.002,-0.096,0.000,0.037,0.020,-88.349,0.004,0.000,-0.489,0.000,-0.009,0.000,0.000,-0.001,0.000,-0.879,-0.029,0.253,0.000,1,1,1,1,0.002,0.006,0.041,0.282,0.004,0.004,0.000,0.000,0.282,0.004,0.000,0
20260703_215709,case01_boxes_2layer,6,213.5,1.000,27.920,428.742,-1.419,755.237,-10.757,0.000,0.263,38.735,-0.001,0.000,-0.097,-0.002,-0.097,0.000,0.037,0.020,-88.399,0.004,0.000,-0.495,0.000,-0.009,0.000,0.000,-0.001,0.000,-0.873,-0.029,0.253,0.000,1,1,1,1,0.002,0.006,0.041,0.282,0.004,0.004,0.000,0.000,0.282,0.004,0.000,0
20260703_215709,case01_boxes_2layer,6,213.5,1.000,28.020,427.668,-1.419,755.263,-10.757,0.000,0.254,38.735,-0.001,0.000,-0.091,-0.002,-0.091,0.000,0.038,0.020,-88.448,0.004,0.000,-0.498,0.000,-0.009,0.000,0.000,0.000,0.000,-0.869,-0.029,0.253,0.000,1,1,1,1,0.002,0.006,0.041,0.282,0.004,0.004,0.000,0.000,0.282,0.004,0.000,0
20260703_215709,case01_boxes_2layer,6,213.5,1.000,28.120,426.594,-1.419,755.287,-10.757,0.000,0.245,38.735,-0.001,0.000,-0.086,-0.001,-0.086,0.000,0.038,0.020,-88.498,0.003,0.000,-0.495,0.000,-0.009,0.000,0.000,0.001,0.000,-0.866,-0.029,0.253,0.000,1,1,1,1,0.002,0.006,0.041,0.282,0.004,0.004,0.000,0.000,0.282,0.004,0.000,0
20260703_215709,case01_boxes_2layer,6,213.5,1.000,28.220,425.520,-1.419,755.311,-10.757,0.000,0.236,38.734,-0.001,0.000,-0.087,-0.001,-0.087,0.000,0.038,0.020,-88.547,0.001,0.000,-0.488,0.000,-0.009,0.000,0.000,0.001,0.000,-0.872,-0.029,0.253,0.000,1,1,1,1,0.002,0.006,0.041,0.282,0.004,0.004,0.000,0.000,0.282,0.004,0.000,0
20260703_215709,case01_boxes_2layer,6,213.5,1.000,28.320,424.446,-1.419,755.334,-10.757,0.000,0.227,38.734,-0.001,0.000,-0.094,-0.002,-0.094,0.000,0.038,0.020,-88.595,0.001,0.000,-0.487,0.000,-0.009,0.000,0.000,0.000,0.000,-0.879,-0.029,0.253,0.000,1,1,1,1,0.002,0.006,0.041,0.282,0.004,0.004,0.000,0.000,0.282,0.004,0.000,0
20260703_215709,case01_boxes_2layer,6,213.5,1.000,28.420,423.373,-1.419,755.356,-10.757,0.000,0.217,38.733,-0.001,0.000,-0.098,-0.002,-0.098,0.000,0.038,0.020,-88.645,0.001,0.000,-0.491,0.000,-0.009,0.000,0.000,-0.001,0.000,-0.893,-0.030,0.253,0.000,1,1,1,1,0.002,0.006,0.041,0.282,0.004,0.004,0.000,0.000,0.282,0.004,0.000,0
20260703_215709,case01_boxes_2layer,6,213.5,1.000,28.520,422.299,-1.419,755.377,-10.757,0.000,0.207,38.733,-0.001,0.000,-0.103,-0.002,-0.103,0.000,0.038,0.020,-88.694,0.001,0.000,-0.499,0.000,-0.009,0.000,0.000,-0.002,0.000,-0.902,-0.030,0.253,0.000,1,1,1,1,0.002,0.006,0.041,0.282,0.004,0.004,0.000,0.000,0.282,0.004,0.000,0
20260703_215709,case01_boxes_2layer,6,213.5,1.000,28.620,421.225,-1.419,755.397,-10.757,0.000,0.196,38.732,0.000,0.000,-0.107,-0.002,-0.107,0.000,0.039,0.020,-88.746,0.002,0.000,-0.511,0.000,-0.009,0.000,0.000,-0.002,0.000,-0.914,-0.030,0.253,0.000,1,1,1,1,0.002,0.006,0.041,0.282,0.005,0.005,0.000,0.000,0.282,0.005,0.000,0
20260703_215709,case01_boxes_2layer,6,213.5,1.000,28.720,420.151,-1.419,755.416,-10.757,0.000,0.186,38.732,0.000,0.000,-0.107,-0.002,-0.107,0.000,0.039,0.020,-88.798,0.004,0.000,-0.525,0.000,-0.010,0.000,0.000,-0.002,0.000,-1.003,-0.033,0.253,0.000,1,1,1,1,0.002,0.006,0.041,0.282,0.005,0.005,0.000,0.000,0.282,0.005,0.000,0
20260703_215709,case01_boxes_2layer,6,213.5,1.000,28.820,419.077,-1.419,755.434,-10.757,0.000,0.175,38.731,0.000,0.000,-0.109,-0.002,-0.109,0.000,0.039,0.020,-88.852,0.005,0.000,-0.539,0.000,-0.010,0.000,0.000,-0.002,0.000,-1.007,-0.033,0.253,0.000,1,1,1,1,0.002,0.006,0.041,0.282,0.005,0.005,0.000,0.000,0.282,0.005,0.000,0
20260703_215709,case01_boxes_2layer,6,213.5,1.000,28.920,418.003,-1.419,755.450,-10.757,0.000,0.164,38.730,0.000,0.000,-0.109,-0.002,-0.109,0.000,0.040,0.020,-88.907,0.006,0.000,-0.550,0.000,-0.010,0.000,0.000,-0.002,0.000,-1.010,-0.033,0.253,0.000,1,1,1,1,0.002,0.006,0.041,0.282,0.005,0.005,0.000,0.000,0.282,0.005,0.000,0
20260703_215709,case01_boxes_2layer,6,213.5,1.000,29.020,416.930,-1.419,755.466,-10.757,0.000,0.152,38.730,0.000,0.000,-0.112,-0.002,-0.112,0.000,0.041,0.020,-88.963,0.007,0.000,-0.562,0.000,-0.010,0.000,0.000,-0.002,0.000,-1.010,-0.033,0.253,0.000,1,1,1,1,0.002,0.006,0.041,0.282,0.005,0.005,0.000,0.000,0.282,0.005,0.000,0
20260703_215709,case01_boxes_2layer,6,213.5,1.000,29.120,415.856,-1.419,755.480,-10.757,0.000,0.141,38.729,0.000,0.000,-0.115,-0.002,-0.115,0.000,0.042,0.020,-89.021,0.008,0.000,-0.574,0.000,-0.011,0.000,0.000,-0.002,0.000,-1.010,-0.033,0.253,0.000,1,1,1,1,0.002,0.006,0.041,0.282,0.004,0.004,0.000,0.000,0.282,0.004,0.000,0
20260703_215709,case01_boxes_2layer,6,213.5,1.000,29.220,414.782,-1.419,755.494,-10.757,0.000,0.130,38.728,0.000,0.000,-0.114,-0.002,-0.114,0.000,0.043,0.020,-89.079,0.009,0.000,-0.585,0.000,-0.011,0.000,0.000,-0.002,0.000,-1.007,-0.033,0.253,0.000,1,1,1,1,0.002,0.006,0.041,0.282,0.004,0.004,0.000,0.000,0.282,0.004,0.000,0
20260703_215709,case01_boxes_2layer,6,213.5,1.000,29.320,413.708,-1.419,755.506,-10.757,0.000,0.118,38.728,0.000,0.000,-0.117,-0.002,-0.117,0.000,0.043,0.020,-89.139,0.009,0.000,-0.594,0.000,-0.011,0.000,0.000,-0.002,0.000,-1.005,-0.033,0.253,0.000,1,1,1,1,0.002,0.006,0.041,0.282,0.005,0.006,0.000,0.000,0.282,0.006,0.000,0
20260703_215709,case01_boxes_2layer,6,213.5,1.000,29.420,412.634,-1.419,755.517,-10.757,0.000,0.106,38.727,0.001,0.000,-0.114,-0.002,-0.114,0.000,0.044,0.020,-89.199,0.009,0.000,-0.601,0.000,-0.011,0.000,0.000,-0.001,0.000,-1.094,-0.036,0.253,0.000,1,1,1,1,0.002,0.006,0.041,0.282,0.005,0.005,0.000,0.000,0.282,0.005,0.000,0
20260703_215709,case01_boxes_2layer,6,213.5,1.000,29.520,411.560,-1.419,755.526,-10.757,0.000,0.095,38.726,0.001,0.000,-0.117,-0.002,-0.117,0.000,0.045,0.020,-89.259,0.009,0.000,-0.608,0.000,-0.011,0.000,0.000,-0.001,0.000,-1.091,-0.036,0.253,0.000,1,1,1,1,0.002,0.006,0.041,0.282,0.005,0.005,0.000,0.000,0.282,0.005,0.000,0
20260703_215709,case01_boxes_2layer,6,213.5,1.000,29.620,410.487,-1.419,755.535,-10.757,0.000,0.083,38.726,0.001,0.000,-0.120,-0.002,-0.120,0.000,0.046,0.020,-89.321,0.009,0.000,-0.616,0.000,-0.011,0.000,0.000,-0.001,0.000,-1.083,-0.036,0.253,0.000,1,1,1,1,0.002,0.006,0.041,0.282,0.005,0.005,0.001,0.001,0.282,0.005,0.000,0
20260703_215709,case01_boxes_2layer,6,213.5,1.000,29.720,409.413,-1.419,755.543,-10.757,0.000,0.071,38.725,0.001,0.000,-0.120,-0.002,-0.120,0.000,0.047,0.020,-89.383,0.009,0.000,-0.623,0.000,-0.011,0.000,0.000,-0.001,0.000,-1.081,-0.036,0.253,0.000,1,1,1,1,0.002,0.006,0.041,0.282,0.005,0.005,0.001,0.001,0.282,0.005,0.000,0
20260703_215709,case01_boxes_2layer,6,213.5,1.000,29.820,408.339,-1.419,755.549,-10.757,0.000,0.059,38.724,0.001,0.000,-0.121,-0.002,-0.121,0.000,0.048,0.020,-89.446,0.009,0.000,-0.629,0.000,-0.011,0.000,0.000,-0.001,0.000,-1.078,-0.036,0.253,0.000,1,1,1,1,0.002,0.006,0.041,0.282,0.005,0.005,0.001,0.001,0.282,0.005,0.000,0
20260703_215709,case01_boxes_2layer,6,213.5,1.000,29.920,407.265,-1.419,755.554,-10.756,0.000,0.046,38.724,0.001,0.000,-0.124,-0.003,-0.124,0.000,0.049,0.020,-89.510,0.008,0.000,-0.636,0.000,-0.012,0.000,0.000,-0.001,0.000,-1.076,-0.036,0.253,0.000,1,1,1,1,0.002,0.006,0.041,0.282,0.004,0.004,0.001,0.001,0.282,0.004,0.000,0
20260703_215709,case01_boxes_2layer,6,213.5,1.000,30.020,406.192,-1.419,755.557,-10.756,0.000,0.034,38.723,0.002,0.000,-0.125,-0.003,-0.125,0.000,0.050,0.020,-89.574,0.008,0.000,-0.641,0.000,-0.012,0.000,0.000,-0.001,0.000,-1.074,-0.036,0.253,0.000,1,1,1,1,0.002,0.006,0.041,0.282,0.006,0.006,0.001,0.001,0.282,0.006,0.000,0
20260703_215709,case01_boxes_2layer,6,213.5,1.000,30.120,405.118,-1.419,755.560,-10.756,0.000,0.021,38.722,0.002,0.000,-0.125,-0.003,-0.125,0.000,0.050,0.020,-89.639,0.007,0.000,-0.648,0.000,-0.012,0.000,0.000,-0.001,0.000,-1.072,-0.035,0.253,0.000,1,1,1,1,0.002,0.006,0.041,0.282,0.006,0.006,0.001,0.001,0.282,0.006,0.000,0
20260703_215709,case01_boxes_2layer,6,213.5,1.000,30.220,404.044,-1.419,755.561,-10.756,0.000,0.009,38.721,0.002,0.000,-0.123,-0.002,-0.123,0.000,0.051,0.020,-89.704,0.006,0.000,-0.652,0.000,-0.012,0.000,0.000,-0.001,0.000,-1.167,-0.039,0.253,0.000,1,1,1,1,0.002,0.006,0.041,0.282,0.006,0.006,0.001,0.001,0.282,0.006,0.000,0
20260703_215709,case01_boxes_2layer,6,213.5,1.000,30.320,402.971,-1.419,755.561,-10.756,0.000,-0.004,38.721,0.002,0.000,-0.127,-0.003,-0.127,0.000,0.051,0.020,-89.770,0.005,0.000,-0.659,0.000,-0.012,0.000,0.000,-0.001,0.000,-1.163,-0.038,0.253,0.000,1,1,1,1,0.002,0.006,0.041,0.282,0.005,0.005,0.001,0.001,0.282,0.005,0.000,0
20260703_215709,case01_boxes_2layer,6,213.5,1.000,30.420,401.897,-1.419,755.560,-10.755,0.000,-0.017,38.720,0.002,0.000,-0.129,-0.003,-0.129,0.000,0.052,0.020,-89.836,0.005,0.000,-0.665,0.000,-0.012,0.000,0.000,-0.001,0.000,-1.165,-0.038,0.253,0.000,1,1,1,1,0.002,0.006,0.041,0.282,0.005,0.005,0.001,0.001,0.282,0.005,0.000,0
20260703_215709,case01_boxes_2layer,6,213.5,1.000,30.520,400.824,-1.419,755.557,-10.755,0.000,-0.030,38.719,0.002,0.000,-0.130,-0.003,-0.130,0.000,0.052,0.020,-89.904,0.004,0.000,-0.672,0.000,-0.012,0.000,0.000,-0.001,0.000,-1.166,-0.039,0.253,0.000,1,1,1,1,0.002,0.006,0.041,0.282,0.005,0.005,0.001,0.001,0.282,0.005,0.000,0
20260703_215709,case01_boxes_2layer,6,213.5,1.000,30.620,399.750,-1.419,755.553,-10.755,0.000,-0.043,38.718,0.003,0.000,-0.132,-0.003,-0.132,0.000,0.053,0.020,-89.971,0.004,0.000,-0.678,0.000,-0.012,0.000,0.000,-0.001,0.000,-1.170,-0.039,0.253,0.000,1,1,1,1,0.002,0.006,0.041,0.282,0.005,0.005,0.001,0.001,0.282,0.005,0.000,0
20260703_215709,case01_boxes_2layer,6,213.5,1.000,30.720,398.677,-1.419,755.548,-10.755,0.000,-0.056,38.717,0.003,0.000,-0.134,-0.003,-0.134,0.000,0.053,0.020,-90.040,0.004,0.000,-0.687,0.000,-0.012,0.000,0.000,-0.001,0.000,-1.171,-0.039,0.252,0.000,1,1,1,1,0.002,0.006,0.041,0.282,0.005,0.005,0.001,0.001,0.282,0.005,0.000,0
20260703_215709,case01_boxes_2layer,6,213.5,1.000,30.820,397.603,-1.419,755.541,-10.754,0.000,-0.070,38.717,0.003,0.000,-0.136,-0.003,-0.136,0.000,0.053,0.020,-90.110,0.003,0.000,-0.694,0.000,-0.013,0.000,0.000,-0.002,0.000,-1.176,-0.039,0.252,0.000,1,1,1,1,0.002,0.006,0.041,0.282,0.005,0.005,0.001,0.001,0.282,0.005,0.000,0
20260703_215709,case01_boxes_2layer,6,213.5,1.000,30.920,396.530,-1.419,755.533,-10.754,0.000,-0.084,38.716,0.003,0.000,-0.138,-0.003,-0.138,0.000,0.054,0.020,-90.180,0.004,0.000,-0.703,0.000,-0.013,0.000,0.000,-0.002,0.000,-1.183,-0.039,0.252,0.000,1,1,1,1,0.002,0.006,0.041,0.282,0.005,0.005,0.001,0.001,0.282,0.005,0.000,0
20260703_215709,case01_boxes_2layer,6,213.5,1.000,31.020,395.456,-1.419,755.524,-10.754,0.000,-0.097,38.715,0.004,0.000,-0.137,-0.003,-0.137,0.000,0.054,0.020,-90.251,0.004,0.000,-0.711,0.000,-0.013,0.000,0.000,-0.001,0.000,-1.188,-0.039,0.252,0.000,1,1,1,1,0.002,0.006,0.041,0.282,0.005,0.005,0.001,0.001,0.282,0.005,0.000,0
20260703_215709,case01_boxes_2layer,6,213.5,1.000,31.120,394.383,-1.419,755.513,-10.753,0.000,-0.112,38.714,0.004,0.000,-0.143,-0.003,-0.143,0.000,0.055,0.020,-90.323,0.004,0.000,-0.720,0.000,-0.013,0.000,0.000,-0.002,0.000,-1.194,-0.039,0.252,0.000,1,1,1,1,0.002,0.006,0.041,0.282,0.006,0.006,0.001,0.001,0.282,0.006,0.000,0
20260703_215709,case01_boxes_2layer,6,213.5,1.000,31.220,393.309,-1.419,755.501,-10.753,0.000,-0.126,38.713,0.004,0.000,-0.142,-0.003,-0.142,0.000,0.055,0.020,-90.396,0.004,0.000,-0.730,0.000,-0.013,0.000,0.000,-0.002,0.000,-1.205,-0.040,0.252,0.000,1,1,1,1,0.002,0.006,0.041,0.282,0.006,0.006,0.001,0.001,0.282,0.006,0.000,0
20260703_215709,case01_boxes_2layer,6,213.5,1.000,31.320,392.236,-1.419,755.488,-10.752,0.000,-0.140,38.712,0.004,0.000,-0.142,-0.003,-0.142,0.000,0.055,0.020,-90.470,0.005,0.000,-0.738,0.000,-0.013,0.000,0.000,-0.001,0.000,-1.211,-0.040,0.252,0.000,1,1,1,1,0.002,0.006,0.041,0.282,0.006,0.006,0.001,0.001,0.282,0.006,0.000,0
20260703_215709,case01_boxes_2layer,6,213.5,1.000,31.420,391.163,-1.419,755.473,-10.752,0.000,-0.155,38.711,0.005,0.000,-0.146,-0.003,-0.146,0.000,0.056,0.020,-90.544,0.005,0.000,-0.747,0.000,-0.014,0.000,0.000,-0.002,0.000,-1.324,-0.044,0.252,0.000,1,1,1,1,0.002,0.006,0.041,0.282,0.006,0.006,0.001,0.001,0.282,0.006,0.000,0
20260703_215709,case01_boxes_2layer,6,213.5,1.000,31.520,390.090,-1.419,755.456,-10.752,0.000,-0.170,38.710,0.005,0.000,-0.149,-0.003,-0.149,0.000,0.057,0.020,-90.620,0.006,0.000,-0.759,0.000,-0.014,0.000,0.000,-0.002,0.000,-1.335,-0.044,0.252,0.000,1,1,1,1,0.002,0.006,0.041,0.282,0.006,0.006,0.001,0.001,0.282,0.006,0.000,0
20260703_215709,case01_boxes_2layer,6,213.5,1.000,31.620,389.017,-1.419,755.438,-10.751,0.000,-0.185,38.709,0.005,0.000,-0.150,-0.003,-0.150,0.000,0.057,0.020,-90.697,0.006,0.000,-0.769,0.000,-0.014,0.000,0.000,-0.002,0.000,-1.347,-0.045,0.252,0.000,1,1,1,1,0.002,0.006,0.041,0.282,0.006,0.006,0.001,0.001,0.282,0.006,0.000,0
20260703_215709,case01_boxes_2layer,6,213.5,1.000,31.720,387.944,-1.419,755.419,-10.750,0.000,-0.200,38.708,0.006,0.000,-0.151,-0.003,-0.151,0.000,0.058,0.020,-90.775,0.007,0.000,-0.778,0.000,-0.014,0.000,0.000,-0.002,0.000,-1.362,-0.045,0.252,0.000,1,1,1,1,0.002,0.006,0.041,0.281,0.006,0.006,0.001,0.001,0.281,0.006,0.000,0
20260703_215709,case01_boxes_2layer,6,213.5,1.000,31.820,386.870,-1.419,755.398,-10.750,0.000,-0.215,38.707,0.006,0.000,-0.156,-0.004,-0.156,0.000,0.059,0.020,-90.854,0.007,0.000,-0.789,0.000,-0.014,0.000,0.000,-0.002,0.000,-1.377,-0.046,0.252,0.000,1,1,1,1,0.002,0.006,0.041,0.281,0.006,0.006,0.001,0.001,0.281,0.006,0.000,0
20260703_215709,case01_boxes_2layer,6,213.5,1.000,31.920,385.798,-1.419,755.375,-10.749,0.000,-0.231,38.706,0.006,0.000,-0.159,-0.004,-0.160,0.000,0.059,0.020,-90.934,0.009,0.000,-0.804,0.000,-0.015,0.000,0.000,-0.002,0.000,-1.390,-0.046,0.252,0.000,1,1,1,1,0.002,0.006,0.041,0.281,0.006,0.006,0.001,0.001,0.281,0.006,0.000,0
20260703_215709,case01_boxes_2layer,6,213.5,1.000,32.020,384.725,-1.419,755.351,-10.749,0.000,-0.247,38.705,0.007,0.000,-0.160,-0.004,-0.160,0.000,0.060,0.020,-91.016,0.009,0.000,-0.817,0.000,-0.015,0.000,0.000,-0.002,0.000,-1.405,-0.046,0.252,0.000,1,1,1,1,0.002,0.006,0.041,0.281,0.006,0.006,0.001,0.001,0.281,0.006,0.000,0
20260703_215709,case01_boxes_2layer,6,213.5,1.000,32.120,383.652,-1.419,755.325,-10.748,0.000,-0.263,38.704,0.007,0.000,-0.161,-0.004,-0.161,0.000,0.061,0.020,-91.099,0.010,0.000,-0.828,0.000,-0.015,0.000,0.000,-0.002,0.000,-1.416,-0.047,0.252,0.000,1,1,1,1,0.002,0.006,0.041,0.281,0.006,0.006,0.001,0.001,0.281,0.006,0.000,0
20260703_215709,case01_boxes_2layer,6,213.5,1.000,32.220,382.579,-1.419,755.298,-10.747,0.000,-0.280,38.703,0.007,0.000,-0.163,-0.004,-0.163,0.000,0.062,0.020,-91.183,0.010,0.000,-0.839,0.000,-0.015,0.000,0.000,-0.002,0.000,-1.435,-0.047,0.252,0.000,1,1,1,1,0.002,0.006,0.041,0.281,0.006,0.006,0.001,0.001,0.281,0.006,0.000,0
20260703_215709,case01_boxes_2layer,6,213.5,1.000,32.320,381.506,-1.419,755.268,-10.746,0.000,-0.296,38.702,0.008,0.000,-0.165,-0.004,-0.165,0.000,0.063,0.020,-91.268,0.010,0.000,-0.850,0.000,-0.015,0.000,0.000,-0.002,0.000,-1.450,-0.048,0.252,0.000,1,1,1,1,0.002,0.006,0.041,0.281,0.006,0.006,0.001,0.001,0.281,0.006,0.000,0
20260703_215709,case01_boxes_2layer,6,213.5,1.000,32.420,380.434,-1.419,755.238,-10.746,0.000,-0.313,38.701,0.008,0.000,-0.168,-0.004,-0.168,0.000,0.064,0.020,-91.354,0.010,0.000,-0.860,0.000,-0.015,0.000,0.000,-0.002,0.000,-1.468,-0.049,0.252,0.000,1,1,1,1,0.002,0.006,0.041,0.281,0.006,0.006,0.001,0.001,0.281,0.006,0.000,0
20260703_215709,case01_boxes_2layer,6,213.5,1.000,32.520,379.361,-1.419,755.205,-10.745,0.000,-0.330,38.699,0.008,0.000,-0.170,-0.004,-0.171,0.000,0.066,0.020,-91.441,0.011,0.000,-0.872,0.000,-0.016,0.000,0.000,-0.002,0.000,-1.487,-0.049,0.252,0.000,1,1,1,1,0.002,0.006,0.040,0.281,0.006,0.006,0.001,0.001,0.281,0.006,0.000,0
20260703_215709,case01_boxes_2layer,6,213.5,1.000,32.620,378.289,-1.418,755.171,-10.744,0.000,-0.347,38.698,0.009,0.000,-0.173,-0.004,-0.173,0.000,0.067,0.020,-91.529,0.011,0.000,-0.884,0.000,-0.016,0.000,0.000,-0.002,0.000,-1.510,-0.050,0.252,0.000,1,1,1,1,0.002,0.006,0.040,0.281,0.006,0.007,0.001,0.001,0.281,0.007,0.000,0
20260703_215709,case01_boxes_2layer,6,213.5,1.000,32.720,377.217,-1.418,755.135,-10.743,0.000,-0.365,38.697,0.009,0.000,-0.177,-0.004,-0.177,0.000,0.068,0.020,-91.619,0.011,0.000,-0.898,0.000,-0.016,0.000,0.000,-0.002,0.000,-1.534,-0.051,0.252,0.000,1,1,1,1,0.002,0.006,0.040,0.281,0.007,0.007,0.001,0.001,0.281,0.007,0.000,0
20260703_215709,case01_boxes_2layer,6,213.5,1.000,32.820,376.144,-1.418,755.097,-10.742,0.000,-0.383,38.696,0.010,0.000,-0.180,-0.004,-0.180,0.000,0.069,0.020,-91.710,0.011,0.000,-0.912,0.000,-0.016,0.000,0.000,-0.003,0.000,-1.556,-0.051,0.252,0.000,1,1,1,1,0.002,0.006,0.040,0.281,0.007,0.007,0.001,0.001,0.281,0.007,0.000,0
20260703_215709,case01_boxes_2layer,6,213.5,1.000,32.920,375.072,-1.418,755.058,-10.741,0.000,-0.401,38.694,0.010,0.000,-0.183,-0.005,-0.183,0.000,0.070,0.020,-91.803,0.012,0.000,-0.927,0.000,-0.017,0.000,0.000,-0.003,0.000,-1.583,-0.052,0.252,0.000,1,1,1,1,0.002,0.006,0.040,0.281,0.007,0.007,0.001,0.001,0.281,0.007,0.000,0
20260703_215709,case01_boxes_2layer,6,213.5,1.000,33.020,374.000,-1.418,755.016,-10.740,0.000,-0.420,38.693,0.011,0.000,-0.187,-0.005,-0.187,0.000,0.071,0.020,-91.897,0.012,0.000,-0.942,0.000,-0.017,0.000,0.000,-0.003,0.000,-1.612,-0.053,0.252,0.000,1,1,1,1,0.002,0.005,0.040,0.281,0.007,0.007,0.001,0.001,0.281,0.007,0.000,0
20260703_215709,case01_boxes_2layer,6,213.5,1.000,33.120,372.928,-1.418,754.973,-10.739,0.000,-0.437,38.692,0.010,0.000,-0.174,-0.004,-0.174,0.000,0.072,0.020,-91.992,0.011,0.000,-0.953,0.000,-0.017,0.000,0.000,0.000,0.000,-1.519,-0.050,0.252,0.000,1,1,1,1,0.002,0.005,0.040,0.281,0.005,0.006,0.001,0.001,0.281,0.006,0.000,0
20260703_215709,case01_boxes_2layer,6,213.5,1.000,33.220,371.856,-1.418,754.928,-10.738,0.000,-0.454,38.691,0.010,0.000,-0.165,-0.004,-0.165,0.000,0.073,0.020,-92.087,0.008,0.000,-0.943,0.000,-0.017,0.000,0.001,0.002,0.000,-1.558,-0.051,0.252,0.000,1,1,1,1,0.002,0.006,0.040,0.281,0.006,0.006,0.001,0.001,0.281,0.006,0.000,0
20260703_215709,case01_boxes_2layer,6,213.5,1.000,33.320,370.785,-1.418,754.882,-10.737,0.000,-0.472,38.689,0.011,0.000,-0.181,-0.004,-0.181,0.000,0.074,0.020,-92.181,0.006,0.000,-0.941,0.000,-0.017,0.000,0.000,-0.001,0.000,-1.606,-0.053,0.252,0.000,1,1,1,1,0.002,0.005,0.040,0.281,0.007,0.007,0.001,0.001,0.281,0.007,0.000,0
20260703_215709,case01_boxes_2layer,6,213.5,1.000,33.420,369.713,-1.418,754.833,-10.735,0.000,-0.491,38.688,0.013,0.000,-0.193,-0.005,-0.193,0.000,0.074,0.020,-92.276,0.006,0.000,-0.953,0.000,-0.017,0.000,0.000,-0.003,0.000,-1.660,-0.055,0.252,0.000,1,1,1,1,0.002,0.005,0.040,0.281,0.008,0.008,0.001,0.001,0.281,0.008,0.000,0
20260703_215709,case01_boxes_2layer,6,213.5,1.000,33.520,368.642,-1.418,754.783,-10.734,0.000,-0.511,38.686,0.014,0.000,-0.202,-0.005,-0.202,0.000,0.075,0.020,-92.373,0.007,0.000,-0.974,0.000,-0.018,0.000,0.000,-0.004,0.000,-1.602,-0.053,0.252,0.000,1,1,1,1,0.002,0.005,0.040,0.281,0.008,0.008,0.001,0.001,0.281,0.008,0.000,0
20260703_215709,case01_boxes_2layer,6,213.5,1.000,33.620,367.570,-1.418,754.730,-10.733,0.000,-0.532,38.685,0.014,0.000,-0.203,-0.005,-0.204,0.000,0.076,0.020,-92.473,0.008,0.000,-0.996,0.000,-0.018,0.000,0.000,-0.004,0.000,-1.655,-0.055,0.252,0.000,1,1,1,1,0.002,0.005,0.040,0.281,0.008,0.008,0.001,0.001,0.281,0.008,0.000,0
20260703_215709,case01_boxes_2layer,6,213.5,1.000,33.720,366.499,-1.418,754.676,-10.731,0.000,-0.553,38.683,0.015,0.000,-0.212,-0.006,-0.213,0.001,0.077,0.020,-92.575,0.010,0.000,-1.023,0.000,-0.019,0.000,0.000,-0.005,0.000,-1.706,-0.056,0.252,0.000,1,1,1,1,0.002,0.005,0.040,0.281,0.009,0.009,0.001,0.001,0.281,0.009,0.000,0
20260703_215709,case01_boxes_2layer,6,213.5,1.000,33.820,365.428,-1.418,754.619,-10.730,0.000,-0.574,38.682,0.016,0.000,-0.210,-0.006,-0.211,0.001,0.078,0.020,-92.680,0.012,0.000,-1.051,0.000,-0.019,0.000,0.000,-0.004,0.000,-1.757,-0.058,0.252,0.000,1,1,1,1,0.002,0.005,0.040,0.281,0.007,0.007,0.001,0.001,0.281,0.007,0.000,0
20260703_215709,case01_boxes_2layer,6,213.5,1.000,33.920,364.357,-1.418,754.560,-10.728,0.000,-0.596,38.680,0.017,0.000,-0.219,-0.006,-0.220,0.001,0.079,0.020,-92.788,0.014,0.000,-1.078,0.000,-0.019,0.000,0.000,-0.005,0.000,-1.806,-0.060,0.252,0.000,1,1,1,1,0.002,0.005,0.040,0.281,0.007,0.007,0.002,0.002,0.281,0.007,0.000,0
20260703_215709,case01_boxes_2layer,6,213.5,1.000,34.020,363.286,-1.418,754.499,-10.726,0.000,-0.618,38.678,0.017,0.000,-0.222,-0.006,-0.222,0.001,0.081,0.020,-92.899,0.016,0.000,-1.107,0.000,-0.020,0.000,0.000,-0.005,0.000,-1.854,-0.061,0.252,0.000,1,1,1,1,0.002,0.005,0.040,0.281,0.007,0.008,0.002,0.002,0.281,0.008,0.000,0
20260703_215709,case01_boxes_2layer,6,213.5,1.000,34.120,362.216,-1.418,754.436,-10.724,0.000,-0.641,38.676,0.018,0.000,-0.226,-0.006,-0.227,0.001,0.083,0.020,-93.012,0.018,0.000,-1.132,0.000,-0.020,0.000,0.000,-0.005,0.000,-1.902,-0.063,0.252,0.000,1,1,1,1,0.002,0.005,0.040,0.280,0.008,0.008,0.002,0.002,0.280,0.008,0.000,0
20260703_215709,case01_boxes_2layer,6,213.5,1.000,34.220,361.146,-1.418,754.370,-10.722,0.000,-0.664,38.674,0.019,0.000,-0.230,-0.007,-0.230,0.001,0.085,0.020,-93.128,0.019,0.000,-1.159,0.000,-0.021,0.000,0.000,-0.004,0.000,-1.952,-0.065,0.252,0.000,1,1,1,1,0.002,0.005,0.040,0.280,0.008,0.008,0.002,0.002,0.280,0.008,0.000,0
20260703_215709,case01_boxes_2layer,6,213.5,1.000,34.320,360.076,-1.418,754.302,-10.720,0.000,-0.687,38.673,0.020,0.000,-0.234,-0.007,-0.235,0.000,0.087,0.020,-93.246,0.020,0.000,-1.182,0.000,-0.021,0.000,0.000,-0.004,0.000,-1.998,-0.066,0.252,0.000,1,1,1,1,0.002,0.005,0.040,0.280,0.008,0.009,0.002,0.002,0.280,0.009,0.000,0
20260703_215709,case01_boxes_2layer,6,213.5,1.000,34.420,359.006,-1.418,754.232,-10.718,0.000,-0.710,38.671,0.021,0.000,-0.235,-0.007,-0.236,0.000,0.089,0.020,-93.366,0.021,0.000,-1.203,0.000,-0.022,0.000,0.000,-0.004,0.000,-2.049,-0.068,0.252,0.000,1,1,1,1,0.002,0.005,0.040,0.280,0.009,0.009,0.002,0.002,0.280,0.009,0.000,0
20260703_215709,case01_boxes_2layer,6,213.5,1.000,34.520,357.936,-1.418,754.159,-10.716,0.000,-0.735,38.669,0.022,0.000,-0.241,-0.007,-0.242,0.000,0.091,0.020,-93.489,0.021,0.000,-1.225,0.000,-0.022,0.000,0.000,-0.004,0.000,-1.957,-0.065,0.252,0.000,1,1,1,1,0.002,0.005,0.040,0.280,0.009,0.009,0.002,0.002,0.280,0.009,0.000,0
20260703_215709,case01_boxes_2layer,6,213.5,1.000,34.620,356.867,-1.418,754.084,-10.714,0.000,-0.759,38.667,0.022,0.000,-0.242,-0.007,-0.243,0.000,0.093,0.020,-93.613,0.021,0.000,-1.245,0.000,-0.022,0.000,0.000,-0.003,0.000,-2.006,-0.066,0.252,0.000,1,1,1,1,0.002,0.005,0.040,0.280,0.007,0.007,0.002,0.002,0.280,0.007,0.000,0
20260703_215709,case01_boxes_2layer,6,213.5,1.000,34.720,355.797,-1.418,754.007,-10.712,0.000,-0.784,38.665,0.024,0.000,-0.249,-0.007,-0.250,0.000,0.095,0.020,-93.740,0.021,0.000,-1.266,0.000,-0.023,0.000,0.000,-0.004,0.000,-2.059,-0.068,0.252,0.000,1,1,1,1,0.002,0.005,0.040,0.280,0.008,0.008,0.002,0.002,0.280,0.008,0.000,0
20260703_215709,case01_boxes_2layer,6,213.5,1.000,34.820,354.728,-1.418,753.927,-10.709,0.000,-0.809,38.663,0.024,0.000,-0.251,-0.007,-0.252,0.000,0.097,0.020,-93.869,0.021,0.000,-1.287,0.000,-0.023,0.000,0.000,-0.003,0.000,-2.115,-0.070,0.252,0.000,1,1,1,1,0.002,0.005,0.040,0.280,0.008,0.008,0.002,0.002,0.280,0.008,0.000,0
20260703_215709,case01_boxes_2layer,6,213.5,1.000,34.920,353.660,-1.418,753.844,-10.707,0.000,-0.835,38.661,0.026,0.000,-0.258,-0.008,-0.259,0.000,0.100,0.020,-94.000,0.021,0.000,-1.310,0.000,-0.023,0.000,0.000,-0.004,0.000,-2.177,-0.072,0.252,0.000,1,1,1,1,0.002,0.005,0.040,0.280,0.009,0.009,0.002,0.002,0.280,0.009,0.000,0
20260703_215709,case01_boxes_2layer,6,213.5,1.000,35.020,352.591,-1.418,753.759,-10.704,0.000,-0.861,38.658,0.027,0.000,-0.261,-0.008,-0.262,0.000,0.102,0.020,-94.133,0.021,0.000,-1.331,0.000,-0.024,0.000,0.000,-0.004,0.000,-2.238,-0.074,0.252,0.000,1,1,1,1,0.002,0.005,0.040,0.280,0.009,0.010,0.002,0.002,0.280,0.010,0.000,0
20260703_215709,case01_boxes_2layer,6,213.5,1.000,35.120,351.523,-1.418,753.671,-10.701,0.000,-0.887,38.656,0.028,0.000,-0.266,-0.008,-0.267,0.000,0.104,0.020,-94.268,0.020,0.000,-1.353,0.000,-0.024,0.000,0.000,-0.004,0.000,-2.149,-0.071,0.252,0.000,1,1,1,1,0.002,0.005,0.040,0.280,0.010,0.010,0.002,0.002,0.280,0.010,0.000,0
20260703_215709,case01_boxes_2layer,6,213.5,1.000,35.220,350.455,-1.418,753.581,-10.698,0.000,-0.914,38.654,0.029,0.000,-0.267,-0.008,-0.268,0.000,0.106,0.020,-94.405,0.019,0.000,-1.373,0.000,-0.025,0.000,0.000,-0.003,0.000,-2.217,-0.073,0.252,0.000,1,1,1,1,0.002,0.005,0.040,0.280,0.008,0.008,0.002,0.002,0.280,0.008,0.000,0
20260703_215709,case01_boxes_2layer,6,213.5,1.000,35.320,349.388,-1.418,753.488,-10.695,0.000,-0.942,38.652,0.031,0.000,-0.276,-0.009,-0.278,0.000,0.107,0.020,-94.545,0.019,0.000,-1.398,0.000,-0.025,0.000,0.000,-0.004,0.000,-2.286,-0.076,0.252,0.000,1,1,1,1,0.002,0.005,0.040,0.279,0.009,0.009,0.002,0.002,0.279,0.009,0.000,0
20260703_215709,case01_boxes_2layer,6,213.5,1.000,35.420,348.320,-1.418,753.392,-10.692,0.000,-0.970,38.649,0.032,0.000,-0.282,-0.009,-0.284,0.000,0.109,0.020,-94.688,0.019,0.000,-1.424,0.000,-0.025,0.000,0.000,-0.005,0.000,-2.362,-0.078,0.252,0.000,1,1,1,1,0.002,0.005,0.040,0.279,0.009,0.010,0.002,0.002,0.279,0.010,0.000,0
20260703_215709,case01_boxes_2layer,6,213.5,1.000,35.520,347.253,-1.418,753.293,-10.689,0.000,-0.999,38.647,0.033,0.000,-0.288,-0.009,-0.289,0.001,0.111,0.020,-94.833,0.019,0.000,-1.451,0.000,-0.026,0.000,0.000,-0.005,0.000,-2.281,-0.075,0.252,0.000,1,1,1,1,0.002,0.005,0.040,0.279,0.010,0.010,0.002,0.002,0.279,0.010,0.000,0
20260703_215709,case01_boxes_2layer,6,213.5,1.000,35.620,346.187,-1.418,753.191,-10.685,0.000,-1.027,38.644,0.033,0.000,-0.281,-0.009,-0.282,0.001,0.113,0.020,-94.980,0.018,0.000,-1.473,0.000,-0.026,0.000,0.000,-0.003,0.000,-2.363,-0.078,0.252,0.000,1,1,1,1,0.002,0.005,0.040,0.279,0.006,0.007,0.002,0.002,0.279,0.007,0.000,0
20260703_215709,case01_boxes_2layer,6,213.5,1.000,35.720,345.120,-1.418,753.087,-10.682,0.000,-1.053,38.642,0.032,0.000,-0.264,-0.008,-0.266,0.000,0.114,0.020,-95.128,0.015,0.000,-1.480,0.000,-0.026,0.000,0.001,0.001,0.000,-2.305,-0.076,0.252,0.000,1,1,1,1,0.002,0.005,0.040,0.279,0.008,0.008,0.003,0.003,0.279,0.008,0.000,0
20260703_215709,case01_boxes_2layer,6,213.5,1.000,35.820,344.055,-1.418,752.980,-10.679,0.000,-1.081,38.640,0.035,0.000,-0.281,-0.009,-0.282,0.000,0.116,0.020,-95.276,0.011,0.000,-1.480,0.000,-0.026,0.000,0.000,-0.002,0.000,-2.413,-0.080,0.252,0.000,1,1,1,1,0.002,0.005,0.040,0.279,0.009,0.010,0.003,0.003,0.279,0.010,0.000,0
20260703_215709,case01_boxes_2layer,6,213.5,1.000,35.920,342.989,-1.418,752.870,-10.675,0.000,-1.111,38.637,0.038,0.000,-0.298,-0.010,-0.301,0.000,0.117,0.020,-95.426,0.010,0.000,-1.497,0.000,-0.027,0.000,0.000,-0.004,0.000,-2.385,-0.079,0.251,0.000,1,1,1,1,0.002,0.005,0.040,0.279,0.011,0.011,0.003,0.003,0.279,0.011,0.000,0
20260703_215709,case01_boxes_2layer,6,213.5,1.000,36.020,341.924,-1.418,752.757,-10.671,0.000,-1.142,38.634,0.041,0.000,-0.311,-0.010,-0.313,0.000,0.118,0.020,-95.578,0.012,0.000,-1.528,0.000,-0.027,0.000,0.000,-0.006,0.000,-2.504,-0.083,0.251,0.000,1,1,1,1,0.002,0.005,0.040,0.279,0.009,0.010,0.003,0.003,0.279,0.010,0.000,0
20260703_215709,case01_boxes_2layer,6,213.5,1.000,36.120,340.859,-1.418,752.640,-10.666,0.000,-1.174,38.631,0.043,0.000,-0.322,-0.011,-0.325,0.001,0.119,0.020,-95.735,0.014,0.000,-1.568,0.000,-0.028,0.000,0.000,-0.008,0.000,-2.633,-0.087,0.251,0.000,1,1,1,1,0.002,0.005,0.040,0.279,0.011,0.011,0.003,0.003,0.279,0.011,0.000,0
20260703_215709,case01_boxes_2layer,6,213.5,1.000,36.220,339.795,-1.418,752.521,-10.662,0.000,-1.207,38.628,0.046,0.000,-0.332,-0.012,-0.335,0.001,0.121,0.020,-95.897,0.018,0.000,-1.615,0.000,-0.029,0.000,-0.001,-0.008,0.000,-2.765,-0.091,0.251,0.000,1,1,1,1,0.002,0.005,0.040,0.279,0.012,0.012,0.003,0.003,0.279,0.012,0.000,0
20260703_215709,case01_boxes_2layer,6,213.5,1.000,36.320,338.731,-1.418,752.398,-10.657,0.000,-1.242,38.625,0.048,0.001,-0.341,-0.012,-0.344,0.001,0.123,0.020,-96.063,0.021,0.000,-1.665,0.000,-0.030,0.000,-0.001,-0.009,0.000,-2.729,-0.090,0.251,0.000,1,1,1,1,0.002,0.005,0.040,0.279,0.010,0.011,0.003,0.003,0.279,0.011,0.000,0
20260703_215709,case01_boxes_2layer,6,213.5,1.000,36.420,337.668,-1.418,752.271,-10.652,0.000,-1.277,38.621,0.051,0.001,-0.351,-0.013,-0.355,0.002,0.126,0.020,-96.235,0.025,0.000,-1.716,0.000,-0.031,0.000,-0.001,-0.009,0.000,-2.860,-0.094,0.251,0.000,1,1,1,1,0.002,0.005,0.040,0.279,0.011,0.012,0.003,0.003,0.279,0.012,0.000,0
20260703_215709,case01_boxes_2layer,6,213.5,1.000,36.520,336.605,-1.418,752.142,-10.647,0.000,-1.312,38.618,0.053,0.001,-0.356,-0.013,-0.359,0.001,0.129,0.020,-96.412,0.029,0.000,-1.767,-0.001,-0.032,0.000,-0.001,-0.009,0.000,-2.997,-0.099,0.251,0.000,1,1,1,1,0.002,0.005,0.040,0.279,0.012,0.013,0.003,0.003,0.279,0.013,0.000,0
20260703_215709,case01_boxes_2layer,6,213.5,1.000,36.620,335.543,-1.418,752.008,-10.641,0.000,-1.349,38.614,0.056,0.001,-0.366,-0.014,-0.371,0.001,0.132,0.020,-96.593,0.033,0.000,-1.818,-0.001,-0.032,0.000,-0.001,-0.009,0.000,-2.953,-0.098,0.251,0.000,1,1,1,1,0.002,0.005,0.040,0.279,0.011,0.011,0.003,0.003,0.279,0.011,0.000,0
20260703_215709,case01_boxes_2layer,6,213.5,1.000,36.720,334.481,-1.418,751.871,-10.635,0.000,-1.386,38.610,0.058,0.001,-0.367,-0.014,-0.371,0.001,0.135,0.020,-96.780,0.035,0.000,-1.865,-0.001,-0.033,0.000,0.000,-0.008,0.000,-3.090,-0.102,0.251,0.000,1,1,1,1,0.002,0.005,0.040,0.278,0.012,0.013,0.003,0.003,0.278,0.013,0.000,0
20260703_215709,case01_boxes_2layer,6,213.5,1.000,36.820,333.420,-1.418,751.730,-10.629,0.001,-1.424,38.606,0.063,0.000,-0.387,-0.015,-0.392,0.001,0.139,0.020,-96.971,0.038,0.000,-1.913,-0.001,-0.034,0.000,-0.001,-0.010,0.000,-3.046,-0.101,0.251,0.000,1,1,1,1,0.002,0.005,0.040,0.278,0.013,0.014,0.003,0.003,0.278,0.014,0.000,0
20260703_215709,case01_boxes_2layer,6,213.5,1.000,36.920,332.360,-1.418,751.585,-10.623,0.001,-1.463,38.602,0.063,0.000,-0.382,-0.015,-0.387,0.001,0.143,0.020,-97.167,0.040,0.000,-1.960,-0.001,-0.035,0.000,0.000,-0.007,0.000,-3.192,-0.105,0.251,0.000,1,1,1,1,0.002,0.005,0.040,0.278,0.012,0.012,0.004,0.003,0.278,0.012,0.000,0
20260703_215709,case01_boxes_2layer,6,213.5,1.000,37.020,331.300,-1.418,751.436,-10.616,0.001,-1.503,38.598,0.069,0.000,-0.404,-0.016,-0.410,0.001,0.148,0.020,-97.368,0.043,0.000,-2.010,-0.001,-0.036,0.000,0.000,-0.009,0.000,-3.341,-0.110,0.251,0.000,1,1,1,1,0.002,0.005,0.040,0.278,0.013,0.014,0.004,0.004,0.278,0.014,0.000,0
20260703_215709,case01_boxes_2layer,6,213.5,1.000,37.120,330.241,-1.417,751.283,-10.609,0.001,-1.544,38.593,0.070,0.000,-0.406,-0.016,-0.411,0.001,0.152,0.020,-97.574,0.045,0.000,-2.059,-0.001,-0.037,0.000,0.000,-0.008,0.000,-3.297,-0.109,0.251,0.000,1,1,1,1,0.002,0.005,0.040,0.278,0.011,0.012,0.004,0.004,0.278,0.012,0.000,0
20260703_215709,case01_boxes_2layer,6,213.5,1.000,37.220,329.183,-1.417,751.126,-10.601,0.001,-1.585,38.589,0.073,0.000,-0.412,-0.017,-0.418,0.001,0.156,0.020,-97.784,0.045,0.000,-2.104,-0.001,-0.037,0.000,0.000,-0.008,0.000,-3.460,-0.114,0.251,0.000,1,1,1,1,0.002,0.005,0.040,0.277,0.013,0.014,0.004,0.004,0.277,0.014,0.000,0
20260703_215709,case01_boxes_2layer,6,213.5,1.000,37.320,328.125,-1.417,750.965,-10.594,0.001,-1.625,38.585,0.073,0.000,-0.404,-0.016,-0.410,0.001,0.161,0.020,-97.999,0.045,0.000,-2.144,-0.001,-0.038,0.000,0.000,-0.005,0.000,-3.247,-0.107,0.251,0.000,1,1,1,1,0.002,0.005,0.040,0.277,0.009,0.010,0.004,0.004,0.277,0.010,0.000,0
20260703_215709,case01_boxes_2layer,6,213.5,1.000,37.420,327.068,-1.417,750.800,-10.587,0.001,-1.664,38.581,0.071,0.000,-0.389,-0.015,-0.395,0.001,0.165,0.020,-98.214,0.039,0.000,-2.152,-0.001,-0.038,0.000,0.001,-0.001,0.000,-3.432,-0.113,0.251,0.000,1,1,1,1,0.002,0.005,0.040,0.277,0.012,0.013,0.004,0.004,0.277,0.013,0.000,0
20260703_215709,case01_boxes_2layer,6,213.5,1.000,37.520,326.012,-1.417,750.631,-10.579,0.000,-1.706,38.577,0.080,-0.001,-0.421,-0.017,-0.428,0.001,0.168,0.020,-98.431,0.036,0.000,-2.173,-0.001,-0.039,0.000,0.000,-0.006,0.000,-3.453,-0.114,0.251,0.000,1,1,1,1,0.002,0.005,0.040,0.277,0.012,0.013,0.004,0.004,0.277,0.013,0.000,0
20260703_215709,case01_boxes_2layer,6,213.5,1.000,37.620,324.957,-1.417,750.458,-10.570,0.000,-1.751,38.572,0.087,-0.001,-0.446,-0.019,-0.454,0.001,0.172,0.020,-98.653,0.035,0.000,-2.216,-0.001,-0.039,0.000,0.000,-0.009,0.000,-3.677,-0.121,0.251,0.000,1,1,1,1,0.002,0.005,0.040,0.277,0.014,0.015,0.004,0.004,0.277,0.015,0.000,0
20260703_215709,case01_boxes_2layer,6,213.5,1.000,37.720,323.903,-1.417,750.280,-10.561,0.000,-1.797,38.566,0.094,0.000,-0.467,-0.021,-0.476,0.001,0.176,0.020,-98.881,0.037,0.000,-2.277,-0.001,-0.041,0.000,0.000,-0.012,0.000,-3.716,-0.123,0.251,0.000,1,1,1,1,0.002,0.005,0.040,0.277,0.014,0.014,0.004,0.004,0.277,0.014,0.000,0
20260703_215709,case01_boxes_2layer,6,213.5,1.000,37.820,322.850,-1.417,750.097,-10.551,0.000,-1.846,38.560,0.101,0.000,-0.486,-0.022,-0.496,0.002,0.180,0.020,-99.116,0.040,-0.001,-2.352,-0.001,-0.042,0.000,-0.001,-0.014,0.000,-3.962,-0.131,0.251,0.000,1,1,1,1,0.002,0.005,0.040,0.277,0.016,0.017,0.004,0.004,0.277,0.017,0.000,0
