run_id,case_name,cargo_count,total_mass_kg,secured_frac,Time,PosX,PosY,PosZ,VelX,VelY,VelZ,SpeedKmh,AccX,AccY,AccZ,LongAcc,LatAcc,VertAcc,Roll,Pitch,Yaw,RollRate,PitchRate,YawRate,AngVelX,AngVelY,AngVelZ,AngAccX,AngAccY,AngAccZ,SteerAngle,TargetSteer,Throttle,Brake,FL_Grounded,FR_Grounded,RL_Grounded,RR_Grounded,FL_ForwardSlip,FR_ForwardSlip,RL_ForwardSlip,RR_ForwardSlip,FL_SideSlip,FR_SideSlip,RL_SideSlip,RR_SideSlip,MaxForwardSlip,MaxSideSlip,RolloverRisk,IsRollover
20260703_204435,case01_baseline_boxes,6,294.5,1.000,0.639,679.395,-1.501,736.112,-0.146,0.448,0.014,1.696,-1.619,0.957,0.080,1.618,0.080,0.958,-0.006,0.057,-89.997,0.157,0.387,0.045,-0.003,0.002,0.006,0.003,0.022,-0.036,12.800,0.380,1.000,0.000,1,1,1,1,-0.004,-0.002,0.737,-1.083,-0.009,-0.008,-0.001,-0.001,1.083,0.009,0.000,0
20260703_204435,case01_baseline_boxes,6,294.5,1.000,0.747,679.366,-1.455,736.115,-0.372,0.386,0.036,1.935,-2.263,-0.615,0.225,2.264,0.224,-0.611,0.016,0.090,-89.968,0.218,0.329,0.288,-0.004,0.007,0.005,-0.011,0.045,-0.014,14.442,0.384,1.000,0.000,1,1,1,1,-0.006,-0.003,0.451,-1.351,-0.011,-0.006,-0.002,-0.002,1.351,0.011,0.000,0
20260703_204435,case01_baseline_boxes,6,294.5,1.000,0.847,679.318,-1.423,736.120,-0.569,0.243,0.057,2.236,-1.967,-1.428,0.203,1.970,0.200,-1.424,0.045,0.116,-89.920,0.284,0.265,0.477,-0.006,0.010,0.004,-0.016,0.033,-0.004,14.447,0.384,1.000,0.000,1,1,1,1,-0.006,-0.003,-0.068,-0.119,-0.012,-0.005,-0.003,-0.003,0.119,0.012,0.000,0
20260703_204435,case01_baseline_boxes,6,294.5,1.000,0.955,679.244,-1.406,736.127,-0.796,0.077,0.079,2.894,-2.276,-1.660,0.223,2.281,0.214,-1.655,0.085,0.141,-89.846,0.404,0.249,0.737,-0.007,0.014,0.003,-0.015,0.036,-0.009,14.245,0.380,1.000,0.000,1,1,1,1,-0.005,-0.003,0.021,0.228,-0.012,-0.003,-0.003,-0.003,0.228,0.012,0.000,0
20260703_204435,case01_baseline_boxes,6,294.5,1.000,1.063,679.147,-1.405,736.136,-1.014,-0.043,0.099,3.672,-2.181,-1.199,0.205,2.185,0.192,-1.194,0.132,0.157,-89.751,0.473,0.155,0.952,-0.008,0.017,0.001,-0.007,0.035,-0.021,13.818,0.362,1.000,0.000,1,1,1,1,-0.004,-0.002,0.207,-0.026,-0.012,-0.003,-0.002,-0.002,0.207,0.012,0.000,0
20260703_204435,case01_baseline_boxes,6,294.5,1.000,1.167,679.031,-1.413,736.147,-1.216,-0.096,0.115,4.410,-2.015,-0.532,0.154,2.017,0.139,-0.527,0.180,0.158,-89.642,0.475,0.010,1.090,-0.008,0.019,-0.001,0.001,0.024,-0.025,13.156,0.353,1.000,0.000,1,1,1,1,-0.002,0.000,0.151,0.508,-0.009,0.000,-0.002,-0.003,0.508,0.009,0.000,0
20260703_204435,case01_baseline_boxes,6,294.5,1.000,1.271,678.893,-1.423,736.160,-1.438,-0.102,0.131,5.210,-2.218,-0.059,0.167,2.220,0.148,-0.054,0.224,0.143,-89.518,0.447,-0.145,1.244,-0.007,0.022,-0.004,0.008,0.026,-0.026,12.615,0.340,1.000,0.000,1,1,1,1,-0.002,0.000,0.142,0.431,-0.009,0.000,-0.002,-0.002,0.431,0.009,0.000,0
20260703_204435,case01_baseline_boxes,6,294.5,1.000,1.383,678.721,-1.433,736.175,-1.652,-0.075,0.146,5.978,-2.148,0.271,0.143,2.149,0.121,0.275,0.266,0.114,-89.369,0.413,-0.295,1.488,-0.006,0.024,-0.005,0.012,0.022,-0.017,11.825,0.320,1.000,0.000,1,1,1,1,-0.004,-0.003,0.119,-0.112,-0.008,0.001,-0.002,-0.002,0.119,0.008,0.000,0
20260703_204435,case01_baseline_boxes,6,294.5,1.000,1.495,678.523,-1.440,736.192,-1.874,-0.037,0.159,6.773,-2.220,0.371,0.135,2.221,0.106,0.374,0.298,0.077,-89.208,0.324,-0.365,1.605,-0.004,0.026,-0.006,0.014,0.016,-0.003,11.268,0.306,1.000,0.000,1,1,1,1,-0.003,-0.001,0.125,0.260,-0.007,0.001,-0.002,-0.002,0.260,0.007,0.000,0
20260703_204435,case01_baseline_boxes,6,294.5,1.000,1.603,678.311,-1.442,736.210,-2.087,-0.006,0.172,7.537,-2.122,0.313,0.127,2.124,0.094,0.314,0.320,0.044,-89.045,0.221,-0.332,1.638,-0.003,0.027,-0.005,0.014,0.014,0.009,10.543,0.279,1.000,0.000,1,1,1,1,-0.004,-0.002,0.119,0.009,-0.007,0.001,-0.002,-0.002,0.119,0.007,0.000,0
20260703_204435,case01_baseline_boxes,6,294.5,1.000,1.711,678.074,-1.442,736.229,-2.301,0.013,0.184,8.312,-2.149,0.188,0.116,2.150,0.075,0.188,0.334,0.019,-88.875,0.140,-0.251,1.699,-0.002,0.028,-0.003,0.013,0.008,0.018,9.851,0.270,1.000,0.000,1,1,1,1,-0.004,-0.002,0.121,0.091,-0.006,0.000,-0.002,-0.002,0.121,0.006,0.000,0
20260703_204435,case01_baseline_boxes,6,294.5,1.000,1.815,677.824,-1.440,736.249,-2.494,0.019,0.196,9.008,-1.930,0.063,0.127,1.932,0.084,0.063,0.341,0.006,-88.705,0.064,-0.129,1.697,-0.001,0.029,-0.001,0.011,0.008,0.019,9.200,0.253,1.000,0.000,1,1,1,1,-0.004,-0.002,0.121,0.089,-0.004,0.002,-0.002,-0.002,0.121,0.004,0.000,0
20260703_204435,case01_baseline_boxes,6,294.5,1.000,1.919,677.555,-1.438,736.270,-2.687,0.018,0.210,9.702,-1.923,-0.008,0.135,1.926,0.086,-0.009,0.341,0.004,-88.532,0.006,-0.016,1.730,0.000,0.030,0.001,0.009,0.007,0.017,8.847,0.244,1.000,0.000,1,1,1,1,-0.004,-0.002,0.122,0.088,-0.005,0.000,-0.002,-0.002,0.122,0.005,0.000,0
20260703_204435,case01_baseline_boxes,6,294.5,1.000,2.023,677.264,-1.436,736.293,-2.898,0.013,0.224,10.464,-2.113,-0.050,0.143,2.116,0.082,-0.050,0.337,0.012,-88.354,-0.046,0.076,1.777,0.001,0.030,0.002,0.009,0.004,0.013,8.228,0.228,1.000,0.000,1,1,1,1,-0.004,-0.002,0.123,0.088,-0.004,0.001,-0.003,-0.003,0.123,0.004,0.000,0
20260703_204435,case01_baseline_boxes,6,294.5,1.000,2.147,676.891,-1.435,736.321,-3.128,0.007,0.241,11.294,-2.300,-0.063,0.166,2.304,0.091,-0.062,0.325,0.028,-88.141,-0.113,0.163,2.133,0.002,0.030,0.003,0.008,0.002,0.007,7.597,0.212,1.000,0.000,1,1,1,1,-0.004,-0.002,0.124,0.088,-0.003,0.002,-0.003,-0.003,0.124,0.003,0.000,0
20260703_204435,case01_baseline_boxes,6,294.5,1.000,2.255,676.541,-1.435,736.348,-3.338,0.002,0.256,12.054,-2.104,-0.045,0.157,2.109,0.081,-0.043,0.311,0.044,-87.954,-0.142,0.161,1.873,0.003,0.030,0.002,0.006,0.000,-0.001,7.038,0.197,1.000,0.000,1,1,1,1,-0.003,-0.002,0.125,0.088,-0.002,0.002,-0.003,-0.003,0.125,0.003,0.000,0
20260703_204435,case01_baseline_boxes,6,294.5,1.000,2.359,676.184,-1.434,736.376,-3.529,0.000,0.271,12.742,-1.907,-0.026,0.148,1.912,0.074,-0.024,0.294,0.058,-87.775,-0.168,0.137,1.784,0.003,0.030,0.002,0.004,-0.002,-0.005,6.545,0.184,1.000,0.000,1,1,1,1,-0.003,-0.002,0.125,0.087,-0.001,0.003,-0.003,-0.003,0.125,0.003,0.000,0
20260703_204435,case01_baseline_boxes,6,294.5,1.000,2.463,675.807,-1.435,736.405,-3.738,-0.002,0.288,13.497,-2.091,-0.016,0.169,2.096,0.081,-0.014,0.275,0.068,-87.598,-0.191,0.102,1.770,0.003,0.030,0.001,0.003,-0.003,-0.008,6.187,0.171,1.000,0.000,1,1,1,1,-0.003,-0.002,0.126,0.087,-0.002,0.002,-0.003,-0.003,0.126,0.003,0.000,0
20260703_204435,case01_baseline_boxes,6,294.5,1.000,2.567,675.406,-1.435,736.436,-3.928,-0.003,0.303,14.181,-1.894,-0.009,0.151,1.899,0.065,-0.007,0.254,0.074,-87.423,-0.209,0.058,1.755,0.004,0.029,0.000,0.002,-0.006,-0.007,5.613,0.159,1.000,0.000,1,1,1,1,-0.003,-0.002,0.126,0.087,0.001,0.003,-0.003,-0.003,0.126,0.003,0.000,0
20260703_204435,case01_baseline_boxes,6,294.5,1.000,2.675,674.972,-1.435,736.469,-4.135,-0.003,0.319,14.930,-2.075,-0.007,0.154,2.080,0.055,-0.005,0.232,0.076,-87.248,-0.225,0.015,1.749,0.004,0.028,0.000,0.001,-0.011,-0.007,5.198,0.142,1.000,0.000,1,1,1,1,-0.003,-0.002,0.126,0.087,0.000,0.002,-0.003,-0.003,0.126,0.003,0.000,0
20260703_204435,case01_baseline_boxes,6,294.5,1.000,2.779,674.532,-1.436,736.503,-4.322,-0.004,0.335,15.607,-1.873,-0.006,0.163,1.879,0.068,-0.003,0.210,0.074,-87.084,-0.220,-0.020,1.639,0.004,0.027,-0.001,0.000,-0.007,-0.004,4.846,0.133,1.000,0.000,1,1,1,1,-0.003,-0.002,0.126,0.087,-0.001,0.001,-0.003,-0.003,0.126,0.003,0.000,0
20260703_204435,case01_baseline_boxes,6,294.5,1.000,2.879,674.089,-1.436,736.538,-4.508,-0.004,0.353,16.280,-1.861,-0.004,0.176,1.868,0.076,-0.002,0.189,0.070,-86.930,-0.208,-0.039,1.539,0.004,0.027,-0.001,-0.001,-0.006,-0.003,4.522,0.125,1.000,0.000,1,1,1,1,-0.003,-0.002,0.126,0.086,0.000,0.001,-0.003,-0.004,0.126,0.004,0.000,0
20260703_204435,case01_baseline_boxes,6,294.5,1.000,2.987,673.590,-1.436,736.577,-4.712,-0.005,0.372,17.016,-2.035,-0.002,0.195,2.043,0.080,0.000,0.167,0.064,-86.768,-0.215,-0.051,1.621,0.003,0.026,-0.001,-0.002,-0.009,-0.001,4.028,0.116,1.000,0.000,1,1,1,1,-0.003,-0.002,0.125,0.086,0.002,0.003,-0.004,-0.004,0.125,0.004,0.000,0
20260703_204435,case01_baseline_boxes,6,294.5,1.000,3.091,673.091,-1.437,736.617,-4.914,-0.004,0.392,17.748,-2.023,0.003,0.202,2.032,0.083,0.005,0.148,0.060,-86.617,-0.191,-0.046,1.507,0.003,0.025,-0.001,-0.003,-0.009,0.001,3.735,0.108,1.000,0.000,1,1,1,1,-0.003,-0.002,0.125,0.086,0.001,0.003,-0.004,-0.004,0.125,0.004,0.000,0
20260703_204435,case01_baseline_boxes,6,294.5,1.000,3.191,672.589,-1.437,736.657,-5.067,-0.002,0.409,18.300,-1.525,0.024,0.168,1.533,0.074,0.025,0.132,0.056,-86.476,-0.167,-0.037,1.413,0.003,0.025,-0.001,-0.003,-0.003,-0.001,3.460,0.101,1.000,0.000,1,1,1,1,-0.010,-0.036,0.039,-0.594,0.001,0.002,-0.003,-0.003,0.594,0.003,0.000,0
20260703_204435,case01_baseline_boxes,6,294.5,1.000,3.291,672.072,-1.437,736.699,-5.237,-0.002,0.427,18.915,-1.701,0.000,0.176,1.709,0.067,0.002,0.117,0.053,-86.340,-0.146,-0.028,1.362,0.002,0.024,-0.001,-0.004,-0.010,0.002,3.210,0.094,1.000,0.000,1,1,1,1,-0.013,-0.535,-0.070,-0.134,0.001,0.002,-0.003,-0.003,0.535,0.003,0.000,0
20260703_204435,case01_baseline_boxes,6,294.5,1.000,3.399,671.493,-1.438,736.747,-5.456,-0.002,0.449,19.709,-2.194,0.002,0.220,2.204,0.074,0.004,0.104,0.052,-86.198,-0.131,-0.016,1.415,0.002,0.022,0.000,-0.004,-0.020,0.006,2.959,0.083,1.000,0.000,1,1,1,1,-0.016,-0.524,-0.056,0.383,0.002,0.003,-0.004,-0.004,0.524,0.004,0.000,0
20260703_204435,case01_baseline_boxes,6,294.5,1.000,3.503,670.919,-1.438,736.794,-5.690,-0.001,0.473,20.553,-2.332,0.006,0.245,2.344,0.084,0.008,0.094,0.052,-86.069,-0.098,0.002,1.291,0.001,0.021,0.000,-0.004,-0.009,0.006,2.598,0.076,0.990,0.000,1,1,1,1,0.009,0.324,0.301,0.436,0.003,0.004,-0.004,-0.004,0.436,0.004,0.000,0
20260703_204435,case01_baseline_boxes,6,294.5,1.000,3.611,670.298,-1.438,736.846,-5.819,0.000,0.488,21.021,-1.290,0.007,0.152,1.298,0.060,0.008,0.087,0.053,-85.941,-0.072,0.012,1.285,0.001,0.020,0.000,-0.006,-0.005,-0.004,2.383,0.070,0.958,0.000,1,1,1,1,-0.002,-0.427,-0.035,0.541,0.003,0.004,-0.004,-0.004,0.541,0.004,0.000,0
20260703_204435,case01_baseline_boxes,6,294.5,1.000,3.711,669.705,-1.438,736.896,-6.009,0.000,0.509,21.710,-1.905,0.006,0.202,1.915,0.063,0.008,0.083,0.055,-85.828,-0.040,0.014,1.128,0.000,0.018,0.000,-0.004,-0.019,0.002,2.082,0.062,0.931,0.000,1,1,1,1,-0.014,-0.376,-0.046,0.308,0.003,0.004,-0.004,-0.004,0.376,0.004,0.000,0
20260703_204435,case01_baseline_boxes,6,294.5,1.000,3.811,669.096,-1.438,736.948,-6.120,0.001,0.523,22.112,-1.108,0.004,0.141,1.115,0.058,0.005,0.081,0.056,-85.722,-0.015,0.013,1.053,0.000,0.019,0.000,-0.005,0.004,-0.005,1.910,0.054,0.903,0.000,1,1,1,1,-0.012,-0.367,-0.026,-0.387,0.002,0.002,-0.003,-0.003,0.387,0.003,0.000,0
20260703_204435,case01_baseline_boxes,6,294.5,1.000,3.915,668.450,-1.438,737.003,-6.306,0.001,0.541,22.787,-1.865,0.002,0.185,1.874,0.042,0.004,0.082,0.056,-85.621,0.012,0.006,1.019,0.000,0.017,0.000,-0.004,-0.022,0.002,1.665,0.047,0.888,0.000,1,1,1,1,-0.001,-0.347,-0.012,0.533,0.004,0.004,-0.004,-0.004,0.533,0.004,0.000,0
20260703_204435,case01_baseline_boxes,6,294.5,1.000,4.015,667.809,-1.438,737.058,-6.476,0.001,0.559,23.399,-1.692,0.001,0.178,1.701,0.046,0.002,0.086,0.057,-85.531,0.035,0.003,0.900,-0.001,0.015,0.000,-0.004,-0.017,0.001,1.451,0.043,0.862,0.000,1,1,1,1,-0.011,-0.343,-0.015,0.178,0.003,0.003,-0.003,-0.003,0.343,0.003,0.000,0
20260703_204435,case01_baseline_boxes,6,294.5,1.000,4.115,667.153,-1.438,737.115,-6.592,0.001,0.573,23.819,-1.159,-0.001,0.143,1.167,0.051,0.000,0.091,0.056,-85.447,0.056,-0.004,0.836,-0.001,0.015,0.000,-0.004,0.000,-0.004,1.342,0.038,0.839,0.000,1,1,1,1,-0.011,-0.333,0.002,-0.165,0.002,0.002,-0.003,-0.003,0.333,0.003,0.000,0
20260703_204435,case01_baseline_boxes,6,294.5,1.000,4.215,666.483,-1.437,737.174,-6.721,0.001,0.589,24.289,-1.296,-0.001,0.153,1.304,0.048,0.000,0.099,0.055,-85.369,0.072,-0.009,0.780,-0.001,0.014,0.000,-0.003,-0.006,-0.002,1.167,0.035,0.817,0.000,1,1,1,1,-0.011,-0.323,-0.001,-0.384,0.002,0.002,-0.003,-0.003,0.384,0.003,0.000,0
20260703_204435,case01_baseline_boxes,6,294.5,1.000,4.319,665.772,-1.437,737.236,-6.859,0.001,0.605,24.790,-1.382,-0.001,0.163,1.390,0.049,0.000,0.108,0.054,-85.293,0.090,-0.015,0.760,-0.002,0.013,-0.001,-0.002,-0.008,0.000,1.079,0.031,0.797,0.000,1,1,1,1,-0.010,-0.312,0.025,-0.358,0.001,0.002,-0.003,-0.003,0.358,0.003,0.000,0
20260703_204435,case01_baseline_boxes,6,294.5,1.000,4.431,664.988,-1.437,737.305,-7.055,0.001,0.627,25.499,-1.959,0.000,0.217,1.970,0.053,0.001,0.119,0.052,-85.217,0.112,-0.018,0.756,-0.002,0.011,0.000,-0.001,-0.021,0.003,0.919,0.028,0.777,0.000,1,1,1,1,-0.009,-0.300,0.027,0.112,0.002,0.002,-0.003,-0.003,0.300,0.003,0.000,0
20260703_204435,case01_baseline_boxes,6,294.5,1.000,4.543,664.191,-1.437,737.376,-7.224,0.001,0.646,26.111,-1.689,0.001,0.192,1.699,0.048,0.002,0.131,0.050,-85.148,0.120,-0.020,0.694,-0.002,0.010,0.000,-0.001,-0.015,0.003,0.786,0.024,0.761,0.000,1,1,1,1,0.001,0.282,0.130,0.104,0.003,0.003,-0.003,-0.003,0.282,0.003,0.000,0
20260703_204435,case01_baseline_boxes,6,294.5,1.000,4.655,663.376,-1.437,737.449,-7.324,0.001,0.658,26.473,-0.999,0.001,0.122,1.006,0.036,0.002,0.143,0.048,-85.084,0.124,-0.018,0.638,-0.002,0.010,0.000,-0.001,0.000,-0.003,0.664,0.020,0.737,0.000,1,1,1,1,-0.005,-0.270,0.042,0.046,0.003,0.003,-0.003,-0.003,0.270,0.003,0.000,0
20260703_204435,case01_baseline_boxes,6,294.5,1.000,4.759,662.607,-1.437,737.518,-7.438,0.001,0.671,26.886,-1.141,0.001,0.132,1.148,0.033,0.002,0.155,0.047,-85.030,0.116,-0.015,0.544,-0.002,0.009,0.000,0.000,-0.007,0.000,0.592,0.017,0.720,0.000,1,1,1,1,-0.008,-0.264,0.038,0.000,0.002,0.002,-0.002,-0.002,0.264,0.002,0.000,0
20260703_204435,case01_baseline_boxes,6,294.5,1.000,4.863,661.824,-1.437,737.589,-7.604,0.001,0.689,27.488,-1.663,0.002,0.181,1.672,0.035,0.003,0.166,0.046,-84.980,0.113,-0.013,0.497,-0.002,0.007,0.000,0.001,-0.018,0.004,0.493,0.015,0.710,0.000,1,1,1,1,0.005,0.250,0.134,0.411,0.004,0.004,-0.003,-0.003,0.411,0.004,0.000,0
20260703_204435,case01_baseline_boxes,6,294.5,1.000,4.975,660.972,-1.437,737.666,-7.660,0.001,0.697,27.688,-0.552,0.000,0.073,0.556,0.024,0.001,0.178,0.045,-84.932,0.115,-0.009,0.482,-0.002,0.008,0.000,0.000,0.009,-0.005,0.403,0.012,0.683,0.000,1,1,1,1,-0.007,-0.234,0.048,-0.295,0.002,0.002,-0.002,-0.002,0.295,0.002,0.000,0
20260703_204435,case01_baseline_boxes,6,294.5,1.000,5.079,660.166,-1.437,737.740,-7.786,0.001,0.710,28.145,-1.262,0.000,0.136,1.269,0.023,0.001,0.188,0.044,-84.891,0.098,-0.007,0.410,-0.002,0.007,0.000,0.002,-0.013,0.002,0.322,0.010,0.670,0.000,1,1,1,1,-0.007,-0.223,0.048,-0.057,0.003,0.003,-0.002,-0.002,0.223,0.003,0.000,0
20260703_204435,case01_baseline_boxes,6,294.5,1.000,5.183,659.346,-1.437,737.815,-7.936,0.001,0.726,28.689,-1.502,0.000,0.160,1.510,0.025,0.001,0.196,0.043,-84.854,0.088,-0.005,0.370,-0.001,0.005,0.000,0.003,-0.017,0.003,0.258,0.008,0.661,0.000,1,1,1,1,0.005,0.204,0.114,0.419,0.004,0.004,-0.003,-0.003,0.419,0.004,0.000,0
20260703_204435,case01_baseline_boxes,6,294.5,1.000,5.287,658.519,-1.437,737.890,-8.040,0.001,0.737,29.066,-1.042,-0.001,0.113,1.048,0.019,0.000,0.204,0.043,-84.821,0.075,-0.003,0.330,-0.001,0.005,0.000,0.002,-0.007,0.000,0.218,0.007,0.645,0.000,1,1,1,1,0.002,0.186,0.109,0.296,0.003,0.003,-0.003,-0.003,0.296,0.003,0.000,0
20260703_204435,case01_baseline_boxes,6,294.5,1.000,5.391,657.682,-1.437,737.967,-8.097,0.001,0.744,29.274,-0.573,-0.002,0.069,0.577,0.016,-0.002,0.210,0.043,-84.791,0.063,-0.003,0.302,-0.001,0.005,0.000,0.002,0.007,-0.004,0.161,0.005,0.624,0.000,1,1,1,1,-0.006,-0.164,0.055,-0.111,0.002,0.002,-0.002,-0.002,0.164,0.002,0.000,0
20260703_204435,case01_baseline_boxes,6,294.5,1.000,5.495,656.834,-1.437,738.045,-8.176,0.000,0.753,29.558,-0.787,-0.002,0.087,0.791,0.015,-0.002,0.215,0.042,-84.763,0.050,-0.004,0.273,-0.001,0.005,0.000,0.002,-0.001,-0.001,0.119,0.004,0.610,0.000,1,1,1,1,-0.006,-0.134,0.058,-0.281,0.002,0.002,-0.002,-0.002,0.281,0.002,0.000,0
20260703_204435,case01_baseline_boxes,6,294.5,1.000,5.599,655.976,-1.436,738.124,-8.277,0.000,0.764,29.926,-1.014,-0.002,0.109,1.020,0.015,-0.001,0.219,0.042,-84.739,0.036,-0.005,0.248,-0.001,0.004,0.000,0.002,-0.008,0.001,0.084,0.003,0.599,0.000,1,1,1,1,-0.005,-0.094,0.058,-0.141,0.002,0.002,-0.002,-0.002,0.141,0.002,0.000,0
20260703_204435,case01_baseline_boxes,6,294.5,1.000,5.703,655.110,-1.436,738.204,-8.403,0.000,0.777,30.378,-1.251,-0.002,0.131,1.258,0.015,-0.001,0.221,0.042,-84.716,0.023,-0.005,0.222,0.000,0.003,0.000,0.003,-0.012,0.002,0.052,0.001,0.591,0.000,1,1,1,1,0.003,0.036,0.092,0.393,0.003,0.003,-0.002,-0.002,0.393,0.003,0.000,0
20260703_204435,case01_baseline_boxes,6,294.5,1.000,5.807,654.232,-1.436,738.286,-8.488,0.000,0.786,30.688,-0.855,-0.002,0.092,0.860,0.012,-0.001,0.222,0.041,-84.696,0.009,-0.005,0.200,0.000,0.003,0.000,0.002,-0.004,0.000,0.021,0.001,0.578,0.000,1,1,1,1,0.001,0.016,0.088,0.311,0.003,0.003,-0.002,-0.002,0.311,0.003,0.000,0
20260703_204435,case01_baseline_boxes,6,294.5,1.000,5.911,653.348,-1.437,738.368,-8.539,0.000,0.792,30.872,-0.509,-0.002,0.059,0.512,0.012,-0.002,0.222,0.040,-84.678,-0.003,-0.007,0.182,0.000,0.003,0.000,0.002,0.006,-0.003,-0.003,0.000,0.561,0.000,1,1,1,1,-0.004,-0.015,0.059,-0.182,0.002,0.002,-0.002,-0.002,0.182,0.002,0.000,0
20260703_204435,case01_baseline_boxes,6,294.5,1.000,6.015,652.455,-1.437,738.450,-8.610,-0.001,0.800,31.129,-0.708,-0.001,0.078,0.712,0.012,-0.001,0.220,0.040,-84.662,-0.014,-0.007,0.166,0.000,0.003,0.000,0.002,-0.001,-0.001,-0.020,-0.001,0.550,0.000,1,1,1,1,-0.004,-0.013,0.059,-0.249,0.002,0.002,-0.002,-0.002,0.249,0.002,0.000,0
20260703_204435,case01_baseline_boxes,6,294.5,1.000,6.119,651.553,-1.437,738.534,-8.686,-0.001,0.808,31.406,-0.766,-0.001,0.084,0.770,0.012,-0.001,0.218,0.039,-84.646,-0.024,-0.007,0.152,0.000,0.003,0.000,0.002,-0.003,0.000,-0.036,-0.001,0.539,0.000,1,1,1,1,-0.004,-0.013,0.058,-0.207,0.002,0.002,-0.002,-0.002,0.207,0.002,0.000,0
20260703_204435,case01_baseline_boxes,6,294.5,1.000,6.247,650.432,-1.437,738.639,-8.814,-0.001,0.822,31.866,-1.272,-0.001,0.136,1.279,0.016,0.000,0.214,0.038,-84.630,-0.041,-0.007,0.167,0.001,0.002,0.000,0.002,-0.012,0.003,-0.053,-0.001,0.531,0.000,1,1,1,1,0.002,0.011,0.080,0.339,0.003,0.003,-0.002,-0.002,0.339,0.003,0.000,0
20260703_204435,case01_baseline_boxes,6,294.5,1.000,6.351,649.514,-1.437,738.724,-8.851,-0.001,0.827,32.003,-0.377,-0.001,0.048,0.380,0.013,0.000,0.210,0.038,-84.617,-0.040,-0.006,0.125,0.001,0.003,0.000,0.000,0.008,-0.003,-0.062,-0.002,0.515,0.000,1,1,1,1,-0.004,-0.012,0.057,-0.223,0.002,0.002,-0.001,-0.001,0.223,0.002,0.000,0
20260703_204435,case01_baseline_boxes,6,294.5,1.000,6.455,648.588,-1.437,738.811,-8.916,-0.001,0.834,32.239,-0.651,0.000,0.074,0.655,0.012,0.000,0.205,0.037,-84.605,-0.045,-0.006,0.118,0.001,0.002,0.000,0.001,-0.001,0.000,-0.067,-0.002,0.506,0.000,1,1,1,1,-0.004,-0.011,0.056,-0.226,0.002,0.002,-0.001,-0.001,0.226,0.002,0.000,0
20260703_204435,case01_baseline_boxes,6,294.5,1.000,6.559,647.654,-1.437,738.898,-8.979,-0.001,0.841,32.468,-0.631,0.000,0.071,0.635,0.011,0.000,0.200,0.036,-84.594,-0.047,-0.005,0.110,0.001,0.002,0.000,0.000,-0.001,0.000,-0.077,-0.002,0.497,0.000,1,1,1,1,-0.004,-0.011,0.055,-0.225,0.002,0.002,-0.001,-0.001,0.225,0.002,0.000,0
20260703_204435,case01_baseline_boxes,6,294.5,1.000,6.663,646.713,-1.437,738.987,-9.082,-0.001,0.852,32.840,-1.029,0.001,0.112,1.035,0.015,0.001,0.196,0.036,-84.584,-0.048,-0.003,0.101,0.001,0.001,0.000,0.001,-0.011,0.003,-0.082,-0.003,0.492,0.000,1,1,1,1,0.002,0.009,0.074,0.332,0.003,0.003,-0.002,-0.002,0.332,0.003,0.000,0
20260703_204435,case01_baseline_boxes,6,294.5,1.000,6.771,645.732,-1.437,739.079,-9.111,-0.001,0.856,32.943,-0.284,0.000,0.039,0.286,0.012,0.000,0.191,0.036,-84.575,-0.049,-0.004,0.096,0.001,0.002,0.000,-0.001,0.009,-0.003,-0.090,-0.003,0.478,0.000,1,1,1,1,-0.004,-0.010,0.054,-0.226,0.002,0.002,-0.001,-0.001,0.226,0.002,0.000,0
20260703_204435,case01_baseline_boxes,6,294.5,1.000,6.871,644.816,-1.437,739.165,-9.167,-0.001,0.863,33.148,-0.565,0.000,0.065,0.569,0.011,0.001,0.186,0.035,-84.566,-0.044,-0.003,0.085,0.001,0.002,0.000,0.000,-0.001,0.000,-0.094,-0.003,0.469,0.000,1,1,1,1,-0.004,-0.010,0.053,-0.226,0.002,0.002,-0.001,-0.001,0.226,0.002,0.000,0
20260703_204435,case01_baseline_boxes,6,294.5,1.000,6.971,643.893,-1.437,739.252,-9.222,-0.001,0.869,33.346,-0.545,0.000,0.064,0.549,0.012,0.001,0.182,0.035,-84.558,-0.041,-0.003,0.080,0.001,0.002,0.000,-0.001,-0.001,0.000,-0.095,-0.003,0.461,0.000,1,1,1,1,-0.004,-0.009,0.053,-0.226,0.001,0.001,-0.001,-0.001,0.226,0.001,0.000,0
20260703_204435,case01_baseline_boxes,6,294.5,1.000,7.079,642.897,-1.437,739.346,-9.275,-0.001,0.875,33.537,-0.527,0.001,0.062,0.531,0.011,0.001,0.178,0.035,-84.550,-0.040,-0.004,0.083,0.001,0.002,0.000,-0.001,-0.001,0.000,-0.096,-0.003,0.454,0.000,1,1,1,1,-0.004,-0.009,0.052,-0.225,0.001,0.001,-0.001,-0.001,0.225,0.001,0.000,0
20260703_204435,case01_baseline_boxes,6,294.5,1.000,7.179,641.965,-1.437,739.434,-9.325,-0.001,0.881,33.721,-0.509,0.001,0.060,0.513,0.012,0.001,0.175,0.034,-84.543,-0.032,-0.003,0.071,0.000,0.002,0.000,-0.001,-0.001,0.000,-0.097,-0.003,0.447,0.000,1,1,1,1,-0.004,-0.009,0.051,-0.225,0.001,0.001,-0.001,-0.001,0.225,0.001,0.000,0
20260703_204435,case01_baseline_boxes,6,294.5,1.000,7.279,641.028,-1.437,739.523,-9.375,0.000,0.887,33.900,-0.493,0.001,0.058,0.496,0.011,0.001,0.172,0.034,-84.536,-0.027,-0.003,0.068,0.000,0.002,0.000,-0.001,-0.001,0.000,-0.113,-0.003,0.439,0.000,1,1,1,1,-0.003,-0.009,0.051,-0.225,0.002,0.002,-0.001,-0.001,0.225,0.002,0.000,0
20260703_204435,case01_baseline_boxes,6,294.5,1.000,7.379,640.085,-1.437,739.612,-9.422,0.000,0.893,34.072,-0.476,0.001,0.057,0.479,0.011,0.001,0.170,0.034,-84.529,-0.021,-0.004,0.064,0.000,0.002,0.000,-0.001,-0.001,0.000,-0.114,-0.004,0.432,0.000,1,1,1,1,-0.003,-0.008,0.050,-0.224,0.002,0.002,-0.001,-0.001,0.224,0.002,0.000,0
20260703_204435,case01_baseline_boxes,6,294.5,1.000,7.479,639.136,-1.437,739.702,-9.468,0.000,0.898,34.239,-0.459,0.001,0.054,0.463,0.010,0.001,0.169,0.033,-84.523,-0.016,-0.003,0.060,0.000,0.002,0.000,-0.001,-0.001,0.000,-0.116,-0.004,0.426,0.000,1,1,1,1,-0.003,-0.008,0.049,-0.224,0.001,0.001,-0.001,-0.001,0.224,0.001,0.000,0
20260703_204435,case01_baseline_boxes,6,294.5,1.000,7.579,638.185,-1.437,739.792,-9.513,0.000,0.904,34.400,-0.444,0.001,0.052,0.447,0.010,0.001,0.168,0.033,-84.518,-0.010,-0.003,0.056,0.000,0.001,0.000,-0.001,-0.001,0.000,-0.116,-0.004,0.419,0.000,1,1,1,1,-0.003,-0.008,0.049,-0.224,0.001,0.001,-0.001,-0.001,0.224,0.001,0.000,0
20260703_204435,case01_baseline_boxes,6,294.5,1.000,7.687,637.154,-1.438,739.890,-9.594,0.000,0.913,34.696,-0.818,0.001,0.090,0.823,0.011,0.002,0.167,0.033,-84.512,-0.003,-0.003,0.055,0.000,0.000,0.000,0.000,-0.010,0.003,-0.120,-0.004,0.418,0.000,1,1,1,1,0.002,0.007,0.063,0.306,0.002,0.002,-0.002,-0.002,0.306,0.002,0.000,0
20260703_204435,case01_baseline_boxes,6,294.5,1.000,7.795,636.116,-1.438,739.989,-9.605,0.000,0.914,34.735,-0.108,0.001,0.018,0.109,0.008,0.001,0.168,0.032,-84.507,0.003,-0.003,0.053,0.000,0.001,0.000,-0.002,0.009,-0.003,-0.128,-0.004,0.406,0.000,1,1,1,1,-0.003,-0.008,0.047,-0.222,0.001,0.001,-0.001,-0.001,0.222,0.001,0.000,0
20260703_204435,case01_baseline_boxes,6,294.5,1.000,7.903,635.076,-1.438,740.088,-9.683,0.000,0.923,35.018,-0.780,0.001,0.085,0.785,0.010,0.001,0.168,0.032,-84.502,0.008,-0.003,0.049,0.000,0.000,0.000,0.000,-0.010,0.003,-0.130,-0.004,0.405,0.000,1,1,1,1,0.002,0.007,0.061,0.300,0.002,0.002,-0.001,-0.001,0.300,0.002,0.000,0
20260703_204435,case01_baseline_boxes,6,294.5,1.000,8.011,634.031,-1.438,740.188,-9.691,0.000,0.924,35.046,-0.079,0.000,0.014,0.080,0.006,0.000,0.170,0.032,-84.498,0.014,-0.002,0.043,0.000,0.001,0.000,-0.001,0.009,-0.003,-0.136,-0.004,0.394,0.000,1,1,1,1,-0.003,-0.007,0.046,-0.221,0.001,0.001,-0.001,-0.001,0.221,0.001,0.000,0
20260703_204435,case01_baseline_boxes,6,294.5,1.000,8.115,633.017,-1.437,740.285,-9.728,0.000,0.929,35.180,-0.369,0.001,0.042,0.371,0.007,0.001,0.171,0.031,-84.494,0.017,-0.003,0.040,0.000,0.001,0.000,-0.001,-0.001,0.000,-0.137,-0.005,0.388,0.000,1,1,1,1,-0.003,-0.007,0.046,-0.220,0.001,0.001,-0.001,-0.001,0.220,0.001,0.000,0
20260703_204435,case01_baseline_boxes,6,294.5,1.000,8.223,631.966,-1.437,740.385,-9.801,0.000,0.936,35.444,-0.729,0.001,0.077,0.733,0.007,0.001,0.174,0.031,-84.490,0.021,-0.003,0.037,0.000,0.000,0.000,0.000,-0.010,0.003,-0.143,-0.005,0.388,0.000,1,1,1,1,0.002,0.006,0.058,0.293,0.002,0.002,-0.001,-0.001,0.293,0.002,0.000,0
20260703_204435,case01_baseline_boxes,6,294.5,1.000,8.335,630.865,-1.437,740.490,-9.805,0.000,0.937,35.458,-0.040,0.000,0.008,0.040,0.004,0.000,0.176,0.031,-84.487,0.024,-0.002,0.033,0.000,0.001,0.000,-0.001,0.009,-0.003,-0.146,-0.004,0.377,0.000,1,1,1,1,-0.003,-0.007,0.045,-0.219,0.001,0.001,-0.001,-0.001,0.219,0.001,0.000,0
20260703_204435,case01_baseline_boxes,6,294.5,1.000,8.447,629.761,-1.437,740.596,-9.875,0.000,0.944,35.711,-0.697,0.000,0.073,0.701,0.006,0.001,0.179,0.031,-84.484,0.026,-0.002,0.029,0.000,0.000,0.000,0.000,-0.010,0.003,-0.151,-0.004,0.377,0.000,1,1,1,1,0.002,0.006,0.057,0.289,0.002,0.002,-0.001,-0.001,0.289,0.002,0.000,0
20260703_204435,case01_baseline_boxes,6,294.5,1.000,8.555,628.697,-1.437,740.697,-9.876,0.000,0.945,35.717,-0.016,0.000,0.004,0.017,0.002,0.000,0.181,0.030,-84.481,0.026,-0.003,0.025,0.000,0.001,0.000,-0.001,0.009,-0.003,-0.156,-0.005,0.367,0.000,1,1,1,1,-0.003,-0.006,0.043,-0.217,0.001,0.001,-0.001,-0.001,0.217,0.001,0.000,0
20260703_204435,case01_baseline_boxes,6,294.5,1.000,8.667,627.585,-1.437,740.804,-9.943,0.000,0.952,35.958,-0.667,0.000,0.068,0.671,0.004,0.001,0.184,0.030,-84.479,0.026,-0.002,0.021,0.000,0.000,0.000,0.001,-0.010,0.003,-0.142,-0.005,0.367,0.000,1,1,1,1,0.002,0.006,0.055,0.284,0.002,0.002,-0.001,-0.001,0.284,0.002,0.000,0
20260703_204435,case01_baseline_boxes,6,294.5,1.000,8.775,626.517,-1.437,740.906,-9.942,0.000,0.952,35.956,0.005,0.000,0.000,-0.005,0.001,0.000,0.186,0.030,-84.477,0.026,-0.002,0.018,0.000,0.001,0.000,0.000,0.009,-0.003,-0.147,-0.005,0.357,0.000,1,1,1,1,-0.003,-0.006,0.042,-0.215,0.001,0.001,-0.001,-0.001,0.215,0.001,0.000,0
20260703_204435,case01_baseline_boxes,6,294.5,1.000,8.879,625.478,-1.437,741.006,-9.971,0.000,0.954,36.059,-0.285,0.000,0.029,0.286,0.001,0.000,0.189,0.030,-84.476,0.022,-0.002,0.015,0.000,0.001,0.000,0.000,-0.001,0.000,-0.150,-0.005,0.353,0.000,1,1,1,1,-0.003,-0.006,0.042,-0.215,0.001,0.001,-0.001,-0.001,0.215,0.001,0.000,0
20260703_204435,case01_baseline_boxes,6,294.5,1.000,8.983,624.435,-1.437,741.105,-10.034,0.000,0.961,36.286,-0.627,0.000,0.062,0.630,0.001,0.000,0.191,0.030,-84.475,0.021,-0.002,0.010,0.000,0.000,0.000,0.001,-0.010,0.003,-0.153,-0.005,0.354,0.000,1,1,1,1,0.002,0.006,0.053,0.278,0.002,0.002,-0.001,-0.001,0.278,0.002,0.000,0
20260703_204435,case01_baseline_boxes,6,294.5,1.000,9.087,623.391,-1.437,741.205,-10.060,0.000,0.963,36.381,-0.264,0.000,0.024,0.265,-0.001,0.000,0.193,0.030,-84.474,0.018,-0.001,0.006,0.000,0.000,0.000,0.000,-0.001,0.000,-0.172,-0.005,0.350,0.000,1,1,1,1,0.002,0.005,0.053,0.276,0.002,0.002,-0.001,-0.001,0.276,0.002,0.000,0
20260703_204435,case01_baseline_boxes,6,294.5,1.000,9.187,622.385,-1.437,741.302,-10.085,0.000,0.965,36.473,-0.254,0.000,0.023,0.255,-0.001,0.000,0.194,0.029,-84.474,0.016,-0.002,0.003,0.000,0.000,0.000,0.000,-0.001,0.000,-0.174,-0.005,0.346,0.000,1,1,1,1,0.002,0.005,0.052,0.274,0.002,0.002,-0.001,-0.001,0.274,0.002,0.000,0
20260703_204435,case01_baseline_boxes,6,294.5,1.000,9.295,621.299,-1.437,741.406,-10.080,0.000,0.965,36.455,0.050,-0.001,-0.008,-0.051,-0.003,-0.001,0.195,0.029,-84.474,0.012,-0.002,0.001,0.000,0.000,0.000,0.000,0.008,-0.003,-0.176,-0.005,0.338,0.000,1,1,1,1,-0.003,-0.006,0.040,-0.211,0.001,0.001,-0.001,-0.001,0.211,0.001,0.000,0
20260703_204435,case01_baseline_boxes,6,294.5,1.000,9.399,620.247,-1.437,741.506,-10.104,0.000,0.967,36.541,-0.238,0.000,0.020,0.239,-0.003,0.000,0.196,0.029,-84.474,0.010,-0.002,-0.003,0.000,0.000,0.000,0.000,-0.001,0.000,-0.179,-0.005,0.334,0.000,1,1,1,1,-0.003,-0.006,0.040,-0.211,0.001,0.001,-0.001,-0.001,0.211,0.001,0.000,0
20260703_204435,case01_baseline_boxes,6,294.5,1.000,9.503,619.194,-1.437,741.607,-10.161,0.000,0.972,36.747,-0.570,0.000,0.053,0.573,-0.002,0.000,0.197,0.029,-84.475,0.006,-0.001,-0.007,0.000,-0.001,0.000,0.001,-0.009,0.003,-0.183,-0.006,0.335,0.000,1,1,1,1,0.002,0.005,0.050,0.269,0.002,0.002,-0.001,-0.001,0.269,0.002,0.000,0
20260703_204435,case01_baseline_boxes,6,294.5,1.000,9.607,618.138,-1.437,741.708,-10.183,0.000,0.974,36.827,-0.220,0.000,0.018,0.221,-0.003,0.000,0.197,0.029,-84.476,0.003,-0.001,-0.011,0.000,-0.001,0.000,0.000,0.000,0.000,-0.184,-0.006,0.332,0.000,1,1,1,1,0.002,0.005,0.050,0.267,0.002,0.002,-0.001,-0.001,0.267,0.002,0.000,0
20260703_204435,case01_baseline_boxes,6,294.5,1.000,9.711,617.079,-1.437,741.809,-10.175,0.000,0.972,36.797,0.081,-0.001,-0.014,-0.082,-0.006,-0.001,0.197,0.029,-84.477,0.002,-0.002,-0.014,0.000,0.000,0.000,0.000,0.008,-0.003,-0.190,-0.006,0.324,0.000,1,1,1,1,-0.003,-0.005,0.039,-0.208,0.001,0.001,-0.001,-0.001,0.208,0.001,0.000,0
20260703_204435,case01_baseline_boxes,6,294.5,1.000,9.815,616.016,-1.437,741.911,-10.196,0.000,0.974,36.872,-0.206,0.000,0.016,0.207,-0.004,0.000,0.197,0.028,-84.479,-0.002,-0.002,-0.015,0.000,0.000,0.000,0.000,0.000,0.000,-0.188,-0.006,0.321,0.000,1,1,1,1,-0.002,-0.005,0.039,-0.208,0.001,0.001,-0.001,-0.001,0.208,0.001,0.000,0
20260703_204435,case01_baseline_boxes,6,294.5,1.000,9.919,614.953,-1.437,742.012,-10.216,0.000,0.975,36.944,-0.199,0.000,0.015,0.200,-0.004,0.000,0.197,0.028,-84.481,-0.004,-0.002,-0.018,0.000,0.000,0.000,0.000,0.000,0.000,-0.189,-0.006,0.318,0.000,1,1,1,1,-0.002,-0.005,0.038,-0.207,0.001,0.001,-0.001,-0.001,0.207,0.001,0.000,0
20260703_204435,case01_baseline_boxes,6,294.5,1.000,10.027,613.851,-1.437,742.117,-10.268,0.000,0.980,37.132,-0.522,0.000,0.046,0.524,-0.004,0.000,0.196,0.028,-84.483,-0.005,-0.001,-0.023,0.000,-0.001,0.000,0.001,-0.009,0.003,-0.191,-0.006,0.319,0.000,1,1,1,1,0.002,0.005,0.048,0.262,0.002,0.002,-0.001,-0.001,0.262,0.002,0.000,0
20260703_204435,case01_baseline_boxes,6,294.5,1.000,10.131,612.782,-1.437,742.220,-10.257,0.000,0.978,37.093,0.107,0.000,-0.018,-0.109,-0.008,0.000,0.196,0.028,-84.485,-0.007,-0.002,-0.025,0.000,0.000,0.000,0.000,0.008,-0.003,-0.199,-0.007,0.312,0.000,1,1,1,1,-0.002,-0.005,0.038,-0.205,0.001,0.001,-0.001,-0.001,0.205,0.001,0.000,0
20260703_204435,case01_baseline_boxes,6,294.5,1.000,10.235,611.714,-1.437,742.321,-10.275,0.000,0.979,37.158,-0.178,0.000,0.012,0.179,-0.006,0.000,0.195,0.028,-84.488,-0.009,-0.002,-0.026,0.000,0.000,0.000,0.000,0.000,0.000,-0.196,-0.007,0.309,0.000,1,1,1,1,-0.002,-0.005,0.037,-0.205,0.001,0.001,-0.001,-0.001,0.205,0.001,0.000,0
20260703_204435,case01_baseline_boxes,6,294.5,1.000,10.339,610.640,-1.437,742.424,-10.292,0.000,0.980,37.220,-0.173,0.000,0.011,0.173,-0.006,0.000,0.194,0.028,-84.491,-0.009,-0.002,-0.028,0.000,0.000,0.000,0.000,0.000,0.000,-0.195,-0.007,0.307,0.000,1,1,1,1,-0.002,-0.005,0.037,-0.204,0.001,0.001,-0.001,-0.001,0.204,0.001,0.000,0
20260703_204435,case01_baseline_boxes,6,294.5,1.000,10.451,609.486,-1.437,742.534,-10.312,0.000,0.982,37.291,-0.199,0.000,0.011,0.199,-0.008,0.000,0.193,0.028,-84.495,-0.010,-0.001,-0.037,0.000,0.000,0.000,0.000,-0.001,0.000,-0.205,-0.007,0.304,0.000,1,1,1,1,-0.002,-0.005,0.037,-0.204,0.001,0.001,-0.001,-0.001,0.204,0.001,0.000,0
20260703_204435,case01_baseline_boxes,6,294.5,1.000,10.551,608.452,-1.437,742.632,-10.328,0.000,0.982,37.349,-0.160,0.000,0.008,0.160,-0.007,0.000,0.192,0.027,-84.498,-0.009,-0.002,-0.034,0.000,0.000,0.000,0.000,0.000,0.000,-0.206,-0.007,0.302,0.000,1,1,1,1,-0.002,-0.005,0.036,-0.203,0.001,0.001,-0.001,-0.001,0.203,0.001,0.000,0
20260703_204435,case01_baseline_boxes,6,294.5,1.000,10.659,607.335,-1.437,742.738,-10.344,0.000,0.983,37.405,-0.154,0.000,0.008,0.154,-0.007,0.000,0.191,0.027,-84.502,-0.009,-0.002,-0.038,0.000,0.000,0.000,0.000,0.000,0.000,-0.203,-0.007,0.299,0.000,1,1,1,1,-0.002,-0.005,0.036,-0.202,0.001,0.001,-0.001,-0.001,0.202,0.001,0.000,0
20260703_204435,case01_baseline_boxes,6,294.5,1.000,10.759,606.296,-1.437,742.837,-10.358,0.000,0.984,37.458,-0.149,0.000,0.006,0.149,-0.008,0.000,0.190,0.027,-84.506,-0.008,-0.001,-0.039,0.000,0.000,0.000,0.000,0.000,0.000,-0.205,-0.007,0.297,0.000,1,1,1,1,-0.002,-0.005,0.036,-0.202,0.001,0.001,-0.001,-0.001,0.202,0.001,0.000,0
20260703_204435,case01_baseline_boxes,6,294.5,1.000,10.867,605.173,-1.437,742.943,-10.404,0.000,0.987,37.624,-0.460,0.000,0.036,0.462,-0.008,0.001,0.189,0.027,-84.510,-0.008,-0.001,-0.046,0.000,-0.001,0.000,0.000,-0.009,0.003,-0.210,-0.007,0.299,0.000,1,1,1,1,0.002,0.005,0.045,0.252,0.002,0.002,-0.001,-0.001,0.252,0.002,0.000,0
20260703_204435,case01_baseline_boxes,6,294.5,1.000,10.971,604.097,-1.437,743.045,-10.390,0.000,0.985,37.570,0.149,0.000,-0.026,-0.151,-0.011,0.000,0.189,0.027,-84.515,-0.007,-0.001,-0.047,0.000,0.000,0.000,-0.001,0.008,-0.003,-0.212,-0.007,0.293,0.000,1,1,1,1,-0.002,-0.005,0.036,-0.200,0.001,0.001,-0.001,-0.001,0.200,0.001,0.000,0
20260703_204435,case01_baseline_boxes,6,294.5,1.000,11.083,602.927,-1.437,743.156,-10.434,0.000,0.988,37.731,-0.446,0.000,0.033,0.447,-0.009,0.001,0.188,0.027,-84.520,-0.007,-0.002,-0.051,0.000,-0.001,0.000,0.000,-0.009,0.003,-0.217,-0.007,0.295,0.000,1,1,1,1,0.002,0.005,0.045,0.250,0.002,0.002,-0.001,-0.001,0.250,0.002,0.000,0
20260703_204435,case01_baseline_boxes,6,294.5,1.000,11.191,601.801,-1.437,743.263,-10.418,0.000,0.986,37.674,0.158,0.000,-0.026,-0.159,-0.011,0.000,0.187,0.027,-84.526,-0.005,0.000,-0.055,0.000,0.000,0.000,-0.001,0.008,-0.003,-0.217,-0.007,0.289,0.000,1,1,1,1,-0.002,-0.005,0.035,-0.199,0.001,0.001,-0.001,-0.001,0.199,0.001,0.000,0
20260703_204435,case01_baseline_boxes,6,294.5,1.000,11.303,600.631,-1.437,743.373,-10.462,0.000,0.989,37.830,-0.433,0.000,0.031,0.434,-0.010,0.001,0.187,0.027,-84.531,-0.003,-0.002,-0.056,0.000,-0.001,0.000,0.000,-0.009,0.003,-0.222,-0.007,0.291,0.000,1,1,1,1,0.002,0.004,0.044,0.247,0.002,0.002,-0.001,-0.001,0.247,0.002,0.000,0
20260703_204435,case01_baseline_boxes,6,294.5,1.000,11.411,599.502,-1.437,743.480,-10.445,0.000,0.986,37.770,0.166,0.000,-0.029,-0.168,-0.013,0.000,0.187,0.027,-84.537,0.000,-0.001,-0.060,0.000,-0.001,0.000,-0.001,0.008,-0.003,-0.229,-0.008,0.285,0.000,1,1,1,1,-0.002,-0.005,0.035,-0.198,0.001,0.001,0.000,0.000,0.198,0.001,0.000,0
20260703_204435,case01_baseline_boxes,6,294.5,1.000,11.519,598.372,-1.437,743.587,-10.457,0.000,0.986,37.811,-0.115,0.000,-0.002,0.115,-0.013,0.000,0.187,0.026,-84.543,0.001,-0.001,-0.061,0.000,-0.001,0.000,0.000,-0.001,0.000,-0.230,-0.008,0.283,0.000,1,1,1,1,-0.002,-0.005,0.034,-0.197,0.001,0.001,0.000,0.000,0.197,0.001,0.000,0
20260703_204435,case01_baseline_boxes,6,294.5,1.000,11.627,597.240,-1.437,743.693,-10.498,0.000,0.988,37.961,-0.417,0.000,0.028,0.417,-0.012,0.001,0.187,0.026,-84.550,0.000,0.000,-0.067,0.000,-0.001,0.000,0.000,-0.009,0.003,-0.232,-0.008,0.286,0.000,1,1,1,1,0.002,0.004,0.043,0.244,0.002,0.002,-0.001,-0.001,0.244,0.002,0.000,0
20260703_204435,case01_baseline_boxes,6,294.5,1.000,11.735,596.110,-1.437,743.799,-10.481,0.000,0.985,37.897,0.176,0.000,-0.031,-0.179,-0.014,0.000,0.187,0.026,-84.557,0.002,-0.001,-0.068,0.000,-0.001,0.000,-0.001,0.008,-0.003,-0.234,-0.008,0.280,0.000,1,1,1,1,-0.002,-0.005,0.034,-0.196,0.001,0.001,0.000,0.000,0.196,0.001,0.000,0
20260703_204435,case01_baseline_boxes,6,294.5,1.000,11.835,595.059,-1.437,743.898,-10.491,0.000,0.985,37.934,-0.103,0.000,-0.003,0.102,-0.013,0.000,0.188,0.026,-84.563,0.003,-0.001,-0.066,0.000,-0.001,0.000,0.000,0.000,0.000,-0.233,-0.008,0.278,0.000,1,1,1,1,-0.002,-0.005,0.034,-0.196,0.001,0.001,0.000,0.000,0.196,0.001,0.000,0
20260703_204435,case01_baseline_boxes,6,294.5,1.000,11.935,594.005,-1.437,743.997,-10.501,0.000,0.985,37.969,-0.100,0.000,-0.003,0.099,-0.013,0.000,0.188,0.026,-84.570,0.004,-0.001,-0.068,0.000,-0.001,0.000,0.000,0.000,0.000,-0.232,-0.008,0.277,0.000,1,1,1,1,-0.002,-0.005,0.034,-0.195,0.001,0.001,0.000,0.000,0.195,0.001,0.000,0
20260703_204435,case01_baseline_boxes,6,294.5,1.000,12.043,592.873,-1.437,744.103,-10.541,0.000,0.987,38.112,-0.396,0.000,0.024,0.397,-0.014,0.001,0.189,0.026,-84.577,0.005,-0.001,-0.074,0.000,-0.002,0.000,0.000,-0.008,0.003,-0.236,-0.008,0.279,0.000,1,1,1,1,0.001,0.004,0.042,0.241,0.002,0.002,-0.001,-0.001,0.241,0.002,0.000,0
20260703_204435,case01_baseline_boxes,6,294.5,1.000,12.155,591.692,-1.437,744.214,-10.522,0.000,0.984,38.044,0.188,0.000,-0.035,-0.191,-0.017,0.000,0.189,0.026,-84.586,0.006,-0.001,-0.081,0.000,-0.001,0.000,-0.001,0.008,-0.002,-0.241,-0.008,0.274,0.000,1,1,1,1,-0.002,-0.004,0.033,-0.194,0.001,0.001,0.000,0.000,0.194,0.001,0.000,0
20260703_204435,case01_baseline_boxes,6,294.5,1.000,12.263,590.557,-1.437,744.320,-10.561,0.000,0.986,38.183,-0.387,0.000,0.020,0.387,-0.017,0.001,0.190,0.026,-84.594,0.007,-0.001,-0.081,0.000,-0.002,0.000,0.000,-0.009,0.003,-0.248,-0.008,0.276,0.000,1,1,1,1,0.001,0.004,0.042,0.239,0.002,0.002,-0.001,-0.001,0.239,0.002,0.000,0
20260703_204435,case01_baseline_boxes,6,294.5,1.000,12.367,589.455,-1.437,744.422,-10.569,0.000,0.985,38.214,-0.086,0.000,-0.008,0.084,-0.016,0.000,0.190,0.026,-84.602,0.004,0.000,-0.083,0.000,-0.002,0.000,0.000,0.000,0.000,-0.243,-0.008,0.275,0.000,1,1,1,1,0.001,0.004,0.042,0.238,0.002,0.002,-0.001,-0.001,0.238,0.002,0.000,0
20260703_204435,case01_baseline_boxes,6,294.5,1.000,12.475,588.319,-1.437,744.528,-10.549,0.000,0.981,38.142,0.196,0.000,-0.037,-0.199,-0.019,0.000,0.191,0.026,-84.611,0.007,-0.001,-0.087,0.000,-0.001,0.000,0.000,0.008,-0.003,-0.249,-0.008,0.270,0.000,1,1,1,1,-0.002,-0.004,0.033,-0.192,0.001,0.001,0.000,0.000,0.192,0.001,0.000,0
20260703_204435,case01_baseline_boxes,6,294.5,1.000,12.575,587.262,-1.437,744.626,-10.558,0.000,0.980,38.171,-0.081,0.000,-0.010,0.079,-0.017,0.000,0.192,0.026,-84.619,0.007,0.000,-0.084,0.000,-0.001,0.000,0.000,-0.001,0.000,-0.274,-0.008,0.269,0.000,1,1,1,1,-0.002,-0.004,0.033,-0.192,0.002,0.002,0.000,0.000,0.192,0.002,0.000,0
20260703_204435,case01_baseline_boxes,6,294.5,1.000,12.675,586.204,-1.437,744.724,-10.565,0.000,0.979,38.198,-0.078,0.000,-0.010,0.077,-0.017,0.000,0.192,0.026,-84.628,0.006,-0.001,-0.087,0.000,-0.001,0.000,0.000,-0.001,0.000,-0.273,-0.009,0.268,0.000,1,1,1,1,-0.002,-0.004,0.033,-0.191,0.002,0.002,0.000,0.000,0.191,0.002,0.000,0
20260703_204435,case01_baseline_boxes,6,294.5,1.000,12.775,585.145,-1.437,744.822,-10.573,0.000,0.978,38.225,-0.075,0.000,-0.011,0.074,-0.017,0.000,0.193,0.026,-84.637,0.005,-0.001,-0.090,0.000,-0.001,0.000,0.000,0.000,0.000,-0.269,-0.009,0.266,0.000,1,1,1,1,-0.002,-0.004,0.033,-0.191,0.002,0.002,0.000,0.000,0.191,0.002,0.000,0
20260703_204435,case01_baseline_boxes,6,294.5,1.000,12.887,583.955,-1.437,744.932,-10.609,0.000,0.979,38.356,-0.364,0.000,0.012,0.363,-0.022,0.000,0.194,0.026,-84.647,0.006,0.000,-0.106,0.000,-0.002,0.000,0.001,-0.009,0.002,-0.274,-0.010,0.269,0.000,1,1,1,1,0.001,0.004,0.041,0.234,0.002,0.002,-0.001,-0.001,0.234,0.002,0.000,0
20260703_204435,case01_baseline_boxes,6,294.5,1.000,12.995,582.816,-1.437,745.037,-10.589,0.000,0.975,38.280,0.206,0.000,-0.047,-0.209,-0.028,0.000,0.194,0.026,-84.658,0.006,0.000,-0.109,0.000,-0.001,0.000,0.000,0.006,-0.002,-0.305,-0.010,0.264,0.000,1,1,1,1,-0.002,-0.004,0.032,-0.190,0.002,0.002,0.000,0.000,0.190,0.002,0.000,0
20260703_204435,case01_baseline_boxes,6,294.5,1.000,13.103,581.668,-1.437,745.143,-10.624,0.000,0.975,38.408,-0.357,0.000,0.008,0.356,-0.026,0.000,0.195,0.026,-84.670,0.005,-0.001,-0.118,0.000,-0.002,0.000,0.000,-0.009,0.002,-0.304,-0.010,0.267,0.000,1,1,1,1,0.001,0.004,0.041,0.233,0.002,0.002,-0.001,-0.001,0.233,0.002,0.000,0
20260703_204435,case01_baseline_boxes,6,294.5,1.000,13.211,580.519,-1.437,745.248,-10.603,0.000,0.971,38.332,0.210,0.000,-0.044,-0.213,-0.024,0.000,0.195,0.026,-84.682,0.004,0.000,-0.124,0.000,-0.002,0.000,0.000,0.007,-0.002,-0.300,-0.010,0.262,0.000,1,1,1,1,-0.002,-0.004,0.032,-0.189,0.002,0.002,0.000,0.000,0.189,0.002,0.000,0
20260703_204435,case01_baseline_boxes,6,294.5,1.000,13.323,579.332,-1.437,745.357,-10.638,0.000,0.972,38.457,-0.349,0.000,0.011,0.349,-0.021,0.000,0.195,0.026,-84.695,0.004,-0.001,-0.127,0.000,-0.002,0.000,0.001,-0.008,0.002,-0.291,-0.010,0.265,0.000,1,1,1,1,0.001,0.004,0.040,0.232,0.002,0.002,-0.001,-0.001,0.232,0.002,0.000,0
20260703_204435,case01_baseline_boxes,6,294.5,1.000,13.431,578.184,-1.437,745.462,-10.617,0.000,0.968,38.379,0.214,0.000,-0.042,-0.217,-0.022,0.000,0.196,0.025,-84.707,0.003,0.000,-0.124,0.000,-0.002,0.000,0.000,0.008,-0.002,-0.287,-0.010,0.260,0.000,1,1,1,1,-0.002,-0.004,0.032,-0.188,0.001,0.001,0.000,0.000,0.188,0.001,0.000,0
20260703_204435,case01_baseline_boxes,6,294.5,1.000,13.535,577.081,-1.437,745.562,-10.623,0.000,0.967,38.399,-0.058,0.000,-0.014,0.057,-0.019,0.000,0.196,0.025,-84.719,0.002,-0.001,-0.115,0.000,-0.002,0.000,0.000,0.000,0.000,-0.280,-0.009,0.259,0.000,1,1,1,1,-0.002,-0.004,0.032,-0.188,0.001,0.001,0.000,0.000,0.188,0.001,0.000,0
20260703_204435,case01_baseline_boxes,6,294.5,1.000,13.639,575.974,-1.437,745.663,-10.628,0.000,0.965,38.419,-0.056,0.000,-0.014,0.055,-0.019,0.000,0.196,0.025,-84.730,0.001,-0.001,-0.114,0.000,-0.002,0.000,0.000,0.000,0.000,-0.274,-0.009,0.259,0.000,1,1,1,1,-0.002,-0.004,0.032,-0.188,0.001,0.001,0.000,0.000,0.188,0.001,0.000,0
20260703_204435,case01_baseline_boxes,6,294.5,1.000,13.747,574.820,-1.437,745.767,-10.662,0.000,0.966,38.541,-0.338,0.000,0.010,0.337,-0.021,0.000,0.196,0.025,-84.742,-0.001,0.000,-0.119,0.000,-0.002,0.000,0.001,-0.008,0.002,-0.272,-0.009,0.262,0.000,1,1,1,1,0.001,0.004,0.040,0.229,0.002,0.002,-0.001,-0.001,0.229,0.002,0.000,0
20260703_204435,case01_baseline_boxes,6,294.5,1.000,13.851,573.715,-1.437,745.867,-10.640,0.000,0.962,38.460,0.221,0.000,-0.043,-0.224,-0.023,0.000,0.196,0.025,-84.753,0.000,0.000,-0.113,0.000,-0.001,0.000,0.000,0.008,-0.002,-0.274,-0.009,0.257,0.000,1,1,1,1,-0.002,-0.004,0.032,-0.187,0.001,0.001,0.000,0.000,0.187,0.001,0.000,0
20260703_204435,case01_baseline_boxes,6,294.5,1.000,13.955,572.605,-1.437,745.968,-10.645,0.000,0.960,38.478,-0.051,0.000,-0.017,0.049,-0.021,0.000,0.196,0.025,-84.765,-0.001,-0.001,-0.112,0.000,-0.002,0.000,0.000,0.000,0.000,-0.272,-0.009,0.256,0.000,1,1,1,1,-0.002,-0.004,0.031,-0.187,0.001,0.001,0.000,0.000,0.187,0.001,0.000,0
20260703_204435,case01_baseline_boxes,6,294.5,1.000,14.059,571.497,-1.437,746.068,-10.650,0.000,0.958,38.494,-0.049,0.000,-0.017,0.047,-0.022,0.000,0.196,0.025,-84.776,-0.001,-0.001,-0.113,0.000,-0.002,0.000,0.000,0.000,0.000,-0.298,-0.009,0.255,0.000,1,1,1,1,-0.002,-0.004,0.031,-0.186,0.002,0.002,0.000,0.000,0.186,0.002,0.000,0
20260703_204435,case01_baseline_boxes,6,294.5,1.000,14.163,570.386,-1.437,746.168,-10.683,0.000,0.959,38.612,-0.328,0.000,0.006,0.328,-0.023,0.000,0.196,0.025,-84.788,-0.002,0.000,-0.116,0.000,-0.002,0.000,0.000,-0.008,0.002,-0.300,-0.009,0.259,0.000,1,1,1,1,0.001,0.004,0.039,0.228,0.002,0.002,-0.001,-0.001,0.228,0.002,0.000,0
20260703_204435,case01_baseline_boxes,6,294.5,1.000,14.271,569.233,-1.437,746.271,-10.660,0.000,0.954,38.530,0.226,0.000,-0.046,-0.229,-0.026,0.000,0.195,0.025,-84.800,-0.001,0.000,-0.123,0.000,-0.002,0.000,0.000,0.007,-0.002,-0.307,-0.010,0.254,0.000,1,1,1,1,-0.002,-0.004,0.031,-0.186,0.002,0.002,0.000,0.000,0.186,0.002,0.000,0
20260703_204435,case01_baseline_boxes,6,294.5,1.000,14.375,568.128,-1.437,746.370,-10.665,0.000,0.953,38.545,-0.044,0.000,-0.019,0.042,-0.023,0.000,0.195,0.025,-84.812,-0.003,-0.001,-0.119,0.000,-0.002,0.000,0.000,0.000,0.000,-0.304,-0.010,0.253,0.000,1,1,1,1,-0.002,-0.004,0.031,-0.185,0.002,0.002,0.000,0.000,0.185,0.002,0.000,0
20260703_204435,case01_baseline_boxes,6,294.5,1.000,14.479,567.013,-1.437,746.469,-10.669,0.000,0.951,38.560,-0.043,0.000,-0.020,0.041,-0.024,0.000,0.195,0.025,-84.824,-0.003,0.000,-0.123,0.000,-0.002,0.000,0.000,0.000,0.000,-0.300,-0.010,0.253,0.000,1,1,1,1,-0.002,-0.004,0.031,-0.185,0.002,0.002,0.000,0.000,0.185,0.002,0.000,0
20260703_204435,case01_baseline_boxes,6,294.5,1.000,14.583,565.902,-1.437,746.568,-10.701,0.000,0.951,38.675,-0.320,0.000,0.003,0.319,-0.025,0.001,0.195,0.025,-84.837,-0.002,0.000,-0.127,0.000,-0.003,0.000,0.000,-0.008,0.002,-0.302,-0.010,0.256,0.000,1,1,1,1,0.001,0.004,0.039,0.226,0.002,0.002,-0.001,-0.001,0.226,0.002,0.000,0
20260703_204435,case01_baseline_boxes,6,294.5,1.000,14.687,564.794,-1.437,746.666,-10.705,0.000,0.949,38.688,-0.039,0.000,-0.022,0.037,-0.025,0.000,0.194,0.025,-84.850,-0.002,0.000,-0.129,0.000,-0.003,0.000,0.000,-0.001,0.000,-0.301,-0.010,0.256,0.000,1,1,1,1,0.001,0.004,0.039,0.226,0.002,0.002,-0.001,-0.001,0.226,0.002,0.000,0
20260703_204435,case01_baseline_boxes,6,294.5,1.000,14.795,563.636,-1.437,746.769,-10.682,0.000,0.944,38.603,0.232,0.000,-0.049,-0.235,-0.028,0.000,0.194,0.025,-84.863,-0.002,0.000,-0.138,0.000,-0.002,0.000,0.000,0.007,-0.002,-0.304,-0.010,0.251,0.000,1,1,1,1,-0.002,-0.004,0.031,-0.184,0.001,0.001,0.000,0.000,0.184,0.001,0.000,0
20260703_204435,case01_baseline_boxes,6,294.5,1.000,14.899,562.527,-1.437,746.867,-10.685,0.000,0.941,38.616,-0.037,0.000,-0.023,0.035,-0.026,0.000,0.194,0.025,-84.877,-0.002,-0.001,-0.133,0.000,-0.002,0.000,0.000,-0.001,0.000,-0.331,-0.010,0.251,0.000,1,1,1,1,-0.002,-0.004,0.031,-0.184,0.002,0.002,0.000,0.000,0.184,0.002,0.000,0
20260703_204435,case01_baseline_boxes,6,294.5,1.000,15.007,561.369,-1.437,746.968,-10.717,0.000,0.941,38.728,-0.313,0.000,0.000,0.311,-0.028,0.000,0.194,0.025,-84.891,-0.002,0.000,-0.145,0.000,-0.003,0.000,0.000,-0.008,0.002,-0.336,-0.010,0.254,0.000,1,1,1,1,0.001,0.004,0.039,0.224,0.002,0.002,-0.001,-0.001,0.224,0.002,0.000,0
20260703_204435,case01_baseline_boxes,6,294.5,1.000,15.107,560.298,-1.437,747.063,-10.720,0.000,0.939,38.740,-0.034,0.000,-0.023,0.032,-0.026,0.000,0.194,0.025,-84.905,0.000,0.000,-0.135,0.000,-0.003,0.000,0.000,0.000,0.000,-0.331,-0.011,0.253,0.000,1,1,1,1,0.001,0.004,0.039,0.224,0.002,0.002,-0.001,-0.001,0.224,0.002,0.000,0
20260703_204435,case01_baseline_boxes,6,294.5,1.000,15.207,559.226,-1.437,747.156,-10.723,0.000,0.937,38.751,-0.033,0.000,-0.024,0.031,-0.027,0.000,0.194,0.025,-84.919,0.000,0.000,-0.138,0.000,-0.003,0.000,0.000,0.000,0.000,-0.329,-0.011,0.253,0.000,1,1,1,1,0.001,0.004,0.039,0.224,0.002,0.002,-0.001,-0.001,0.224,0.002,0.000,0
20260703_204435,case01_baseline_boxes,6,294.5,1.000,15.315,558.068,-1.437,747.257,-10.700,0.000,0.932,38.664,0.236,0.000,-0.052,-0.240,-0.031,0.000,0.194,0.025,-84.934,0.000,0.000,-0.151,0.000,-0.002,0.000,-0.001,0.007,-0.002,-0.330,-0.011,0.249,0.000,1,1,1,1,-0.002,-0.004,0.031,-0.183,0.002,0.002,0.000,0.000,0.183,0.002,0.000,0
20260703_204435,case01_baseline_boxes,6,294.5,1.000,15.423,556.914,-1.437,747.358,-10.730,0.000,0.931,38.774,-0.306,0.000,-0.003,0.305,-0.030,0.000,0.194,0.025,-84.949,0.001,-0.001,-0.154,0.000,-0.003,0.000,0.000,-0.008,0.002,-0.332,-0.011,0.252,0.000,1,1,1,1,0.001,0.004,0.038,0.223,0.002,0.002,-0.001,-0.001,0.223,0.002,0.000,0
20260703_204435,case01_baseline_boxes,6,294.5,1.000,15.531,555.758,-1.437,747.458,-10.706,0.000,0.926,38.687,0.238,0.000,-0.054,-0.242,-0.033,0.000,0.194,0.025,-84.965,0.002,0.001,-0.159,0.000,-0.002,0.000,0.000,0.007,-0.002,-0.332,-0.011,0.248,0.000,1,1,1,1,-0.002,-0.004,0.031,-0.183,0.002,0.002,0.000,0.000,0.183,0.002,0.000,0
20260703_204435,case01_baseline_boxes,6,294.5,1.000,15.631,554.685,-1.437,747.550,-10.709,0.000,0.923,38.697,-0.029,0.000,-0.026,0.027,-0.029,0.000,0.194,0.025,-84.980,0.001,-0.001,-0.148,0.000,-0.002,0.000,0.000,0.000,0.000,-0.328,-0.011,0.247,0.000,1,1,1,1,-0.002,-0.004,0.030,-0.182,0.001,0.001,0.000,0.000,0.182,0.001,0.000,0
20260703_204435,case01_baseline_boxes,6,294.5,1.000,15.747,553.441,-1.437,747.657,-10.740,0.000,0.923,38.805,-0.301,0.000,-0.005,0.300,-0.031,0.001,0.195,0.025,-84.997,0.002,0.000,-0.174,0.000,-0.003,0.000,0.000,-0.008,0.002,-0.329,-0.011,0.251,0.000,1,1,1,1,0.001,0.004,0.038,0.222,0.002,0.002,0.000,0.000,0.222,0.002,0.000,0
20260703_204435,case01_baseline_boxes,6,294.5,1.000,15.851,552.326,-1.437,747.753,-10.716,0.000,0.917,38.717,0.240,0.000,-0.055,-0.244,-0.034,0.000,0.195,0.025,-85.013,0.002,0.000,-0.160,0.000,-0.002,0.000,0.000,0.007,-0.002,-0.331,-0.011,0.246,0.000,1,1,1,1,-0.002,-0.004,0.030,-0.182,0.001,0.001,0.000,0.000,0.182,0.001,0.000,0
20260703_204435,case01_baseline_boxes,6,294.5,1.000,15.951,551.252,-1.437,747.845,-10.718,0.000,0.914,38.726,-0.026,0.000,-0.028,0.024,-0.030,0.000,0.195,0.025,-85.029,0.002,0.000,-0.155,0.000,-0.002,0.000,0.000,0.000,0.000,-0.362,-0.012,0.246,0.000,1,1,1,1,-0.002,-0.004,0.030,-0.182,0.002,0.002,0.000,0.000,0.182,0.002,0.000,0
20260703_204435,case01_baseline_boxes,6,294.5,1.000,16.063,550.048,-1.437,747.947,-10.748,0.000,0.914,38.832,-0.298,0.000,-0.007,0.296,-0.033,0.000,0.195,0.025,-85.046,0.003,-0.001,-0.175,0.000,-0.003,0.000,0.000,-0.008,0.002,-0.362,-0.012,0.250,0.000,1,1,1,1,0.001,0.004,0.038,0.221,0.002,0.002,0.000,0.000,0.221,0.002,0.000,0
20260703_204435,case01_baseline_boxes,6,294.5,1.000,16.199,548.587,-1.437,748.071,-10.724,0.000,0.908,38.745,0.237,0.000,-0.062,-0.242,-0.041,0.000,0.196,0.025,-85.068,0.004,0.000,-0.217,0.000,-0.002,0.000,0.000,0.007,-0.002,-0.341,-0.011,0.245,0.000,1,1,1,1,-0.002,-0.004,0.030,-0.181,0.001,0.001,0.000,0.000,0.181,0.001,0.000,0
20260703_204435,case01_baseline_boxes,6,294.5,1.000,16.307,547.426,-1.241,748.162,-10.838,0.133,0.761,39.114,-1.134,1.332,-1.466,1.027,-1.567,1.302,-0.407,-1.049,-85.054,-6.024,-10.732,0.140,0.010,-0.013,-0.053,0.102,-0.103,-0.526,-0.492,-0.018,0.220,0.000,1,1,1,1,-0.042,0.365,0.096,0.088,-0.010,0.038,-0.013,-0.013,0.365,0.038,0.008,0
20260703_204435,case01_baseline_boxes,6,294.5,1.000,16.407,546.377,-1.181,748.245,-10.371,0.073,0.833,37.456,4.668,-0.600,0.715,-4.606,1.118,-0.448,-0.678,-1.728,-85.084,-2.711,-6.794,-0.300,0.014,-0.009,-0.084,0.040,0.040,-0.314,-0.583,-0.019,0.300,0.000,0,1,1,1,0.000,0.030,0.063,0.019,0.000,0.009,0.002,0.002,0.063,0.009,0.000,0
20260703_204435,case01_baseline_boxes,6,294.5,1.000,16.519,545.225,-1.212,748.338,-10.278,-0.491,0.823,37.162,0.926,-5.645,-0.097,-1.136,0.063,-5.607,-0.828,-2.082,-85.112,-1.498,-3.544,-0.281,0.020,-0.004,-0.037,0.063,0.050,0.474,-0.510,-0.017,0.313,0.000,0,0,1,1,0.000,0.000,0.045,0.060,0.000,0.000,0.000,0.000,0.060,0.000,0.000,0
20260703_204435,case01_baseline_boxes,6,294.5,1.000,16.619,544.196,-1.275,748.421,-10.281,-0.724,0.823,37.221,-0.025,-2.327,0.004,-0.062,0.041,-2.326,-0.961,-2.161,-85.123,-1.337,-0.787,-0.112,0.024,-0.003,0.003,0.032,0.009,0.400,-0.495,-0.017,0.317,0.000,0,0,1,1,0.000,0.000,0.048,0.378,0.000,0.000,0.000,0.000,0.378,0.000,0.000,0
20260703_204435,case01_baseline_boxes,6,294.5,1.000,16.727,543.093,-1.361,748.510,-10.205,-0.848,0.817,36.981,0.761,-1.242,-0.058,-0.805,0.030,-1.215,-1.106,-1.973,-85.126,-1.451,1.881,-0.025,0.028,0.000,0.051,0.047,0.029,0.480,-0.552,-0.019,0.312,0.000,0,0,1,1,0.000,0.000,0.008,-0.263,0.000,0.000,0.000,0.000,0.263,0.000,0.000,0
20260703_204435,case01_baseline_boxes,6,294.5,1.000,16.827,542.071,-1.397,748.594,-10.148,-0.365,0.839,36.682,0.563,4.837,0.216,-0.426,0.164,4.853,-1.169,-1.379,-85.136,-0.624,5.942,-0.107,0.018,-0.001,0.124,-0.101,-0.013,0.731,-0.698,-0.020,0.325,0.000,0,0,1,1,0.000,0.000,0.040,-0.282,0.000,0.000,0.001,0.001,0.282,0.001,0.000,0
20260703_204435,case01_baseline_boxes,6,294.5,1.000,16.935,540.971,-1.447,748.685,-10.187,-0.437,0.836,36.828,-0.381,-0.728,-0.028,0.370,-0.045,-0.733,-1.201,-0.544,-85.146,-0.317,8.347,-0.101,0.012,-0.003,0.132,-0.064,-0.021,0.081,-0.785,-0.027,0.329,0.000,1,1,1,1,-0.055,-0.126,0.052,0.330,0.009,0.009,-0.001,-0.001,0.330,0.009,0.000,0
20260703_204435,case01_baseline_boxes,6,294.5,1.000,17.047,539.824,-1.478,748.778,-10.234,-0.135,0.828,36.967,-0.479,3.025,-0.086,0.460,-0.189,3.023,-1.188,0.201,-85.178,0.122,7.446,-0.320,0.004,-0.007,0.097,-0.079,-0.035,-0.353,-0.769,-0.026,0.323,0.000,1,1,1,1,0.001,0.346,0.057,-0.214,0.004,0.004,-0.001,-0.001,0.346,0.004,0.000,0
20260703_204435,case01_baseline_boxes,6,294.5,1.000,17.155,538.715,-1.453,748.869,-10.297,0.335,0.850,37.214,-0.623,4.701,0.228,0.597,0.086,4.709,-1.085,0.522,-85.198,1.033,3.210,-0.194,-0.020,-0.003,0.031,-0.243,0.041,-0.663,-0.683,-0.023,0.308,0.000,1,1,1,1,-0.001,-0.228,0.068,0.088,0.003,0.003,-0.003,-0.003,0.228,0.003,0.000,0
20260703_204435,case01_baseline_boxes,6,294.5,1.000,17.263,537.598,-1.422,748.961,-10.354,0.224,0.862,37.412,-0.572,-1.113,0.112,0.592,0.082,-1.105,-0.927,0.628,-85.221,1.581,1.066,-0.233,-0.028,-0.005,0.008,-0.073,-0.020,-0.228,-0.575,-0.019,0.305,0.000,1,1,1,1,0.001,0.142,0.073,0.040,0.001,0.001,-0.003,-0.003,0.142,0.003,0.000,0
20260703_204435,case01_baseline_boxes,6,294.5,1.000,17.371,536.478,-1.405,749.054,-10.377,0.078,0.872,37.491,-0.233,-1.458,0.102,0.256,0.101,-1.454,-0.738,0.608,-85.247,1.884,-0.199,-0.258,-0.033,-0.004,-0.009,-0.058,0.004,-0.173,-0.477,-0.016,0.299,0.000,1,1,1,1,0.000,-0.011,0.063,0.031,0.000,0.000,-0.002,-0.002,0.063,0.002,0.000,0
20260703_204435,case01_baseline_boxes,6,294.5,1.000,17.475,535.403,-1.403,749.144,-10.401,-0.035,0.880,37.576,-0.232,-1.132,0.083,0.248,0.075,-1.129,-0.538,0.506,-85.270,2.008,-1.028,-0.229,-0.037,-0.004,-0.019,-0.033,0.004,-0.100,-0.449,-0.015,0.296,0.000,1,1,1,1,0.000,0.000,0.054,0.031,0.000,0.001,-0.002,-0.002,0.054,0.002,0.000,0
20260703_204435,case01_baseline_boxes,6,294.5,1.000,17.575,534.362,-1.410,749.231,-10.418,-0.105,0.886,37.643,-0.176,-0.699,0.057,0.184,0.046,-0.698,-0.333,0.362,-85.290,2.047,-1.437,-0.200,-0.038,-0.004,-0.024,-0.014,0.004,-0.048,-0.392,-0.013,0.293,0.000,1,1,1,1,0.000,0.000,0.046,0.029,0.001,0.001,-0.001,-0.001,0.046,0.001,0.000,0
20260703_204435,case01_baseline_boxes,6,294.5,1.000,17.683,533.248,-1.169,749.318,-9.964,0.207,0.677,35.961,4.540,3.124,-2.086,-4.745,-1.762,3.018,-0.779,1.006,-85.470,-4.464,6.442,-1.801,-0.024,-0.016,0.043,0.144,-0.120,0.672,-0.248,-0.007,0.371,0.000,1,1,1,1,0.034,0.017,0.211,0.322,-0.033,-0.032,-0.011,0.011,0.322,0.033,0.000,0
20260703_204435,case01_baseline_boxes,6,294.5,1.000,17.787,532.221,-1.061,749.400,-9.865,-0.051,0.788,35.629,0.987,-2.585,1.105,-0.826,1.216,-2.592,-0.827,1.596,-85.554,-0.482,5.902,-0.839,-0.010,-0.009,0.056,0.141,0.069,0.127,-0.093,-0.002,0.374,0.000,0,1,0,1,0.000,0.000,0.000,0.143,0.000,-0.006,0.000,0.020,0.143,0.020,0.000,0
20260703_204435,case01_baseline_boxes,6,294.5,1.000,17.895,531.156,-1.113,749.485,-9.805,-0.804,0.792,35.531,0.605,-7.527,0.047,-0.364,0.191,-7.541,-0.740,1.796,-85.589,0.876,2.000,-0.353,-0.015,-0.005,0.012,-0.050,0.038,-0.439,-0.023,-0.001,0.378,0.000,1,1,0,0,0.001,0.000,0.000,0.000,-0.003,-0.003,0.000,0.000,0.001,0.003,0.000,0
20260703_204435,case01_baseline_boxes,6,294.5,1.000,18.003,530.100,-1.225,749.570,-9.800,-1.249,0.799,35.681,0.049,-4.448,0.068,0.089,0.120,-4.446,-0.636,1.703,-85.611,1.035,-0.933,-0.219,-0.021,-0.003,-0.043,-0.063,0.014,-0.552,-0.030,-0.001,0.372,0.000,1,1,0,0,0.001,0.000,0.000,0.000,-0.001,-0.001,0.000,0.000,0.001,0.001,0.000,0
20260703_204435,case01_baseline_boxes,6,294.5,1.000,18.103,529.117,-1.358,749.650,-9.829,-1.350,0.811,35.836,-0.290,-1.019,0.121,0.320,0.108,-1.011,-0.520,1.251,-85.621,1.161,-4.517,-0.103,-0.034,0.000,-0.117,-0.131,0.032,-0.740,-0.049,-0.002,0.366,0.000,1,1,0,0,0.000,0.000,0.000,0.000,0.002,0.002,0.000,0.000,0.000,0.002,0.000,0
20260703_204435,case01_baseline_boxes,6,294.5,1.000,18.211,528.042,-1.483,749.738,-10.073,-0.908,0.816,36.528,-2.440,4.426,0.051,2.401,-0.163,4.445,-0.351,0.459,-85.612,1.698,-7.925,0.091,-0.034,0.005,-0.120,0.003,0.054,-0.025,-0.101,-0.003,0.334,0.000,1,1,1,1,-0.002,-0.037,0.258,-0.239,0.004,0.004,-0.001,-0.001,0.258,0.004,0.000,0
20260703_204435,case01_baseline_boxes,6,294.5,1.000,18.319,526.955,-1.552,749.825,-10.085,-0.384,0.811,36.448,-0.116,5.236,-0.059,0.133,-0.087,5.236,-0.213,-0.239,-85.598,1.375,-6.979,0.144,-0.028,0.003,-0.100,0.059,-0.019,0.200,-0.134,-0.004,0.338,0.000,1,1,1,1,-0.002,-0.008,0.359,-0.509,0.001,0.001,0.000,0.000,0.509,0.001,0.000,0
20260703_204435,case01_baseline_boxes,6,294.5,1.000,18.419,525.950,-1.508,749.907,-10.038,0.396,0.822,36.284,0.471,7.801,0.117,-0.391,0.152,7.805,-0.006,-0.510,-85.607,2.072,-2.710,-0.088,-0.037,0.000,-0.035,-0.091,-0.034,0.646,-0.107,-0.003,0.340,0.000,1,1,1,1,-0.006,-0.006,-0.001,-0.300,0.000,0.000,0.000,0.000,0.300,0.000,0.000,0
20260703_204435,case01_baseline_boxes,6,294.5,1.000,18.531,524.823,-1.468,749.998,-10.046,0.300,0.822,36.304,-0.090,-0.960,-0.006,0.078,-0.016,-0.961,0.208,-0.642,-85.613,2.134,-1.314,-0.061,-0.033,0.000,-0.002,0.044,0.003,0.329,-0.113,-0.004,0.340,0.000,1,1,1,1,-0.006,-0.005,0.021,-0.261,0.001,0.001,0.000,0.000,0.261,0.001,0.000,0
20260703_204435,case01_baseline_boxes,6,294.5,1.000,18.639,523.740,-1.442,750.086,-10.058,0.180,0.820,36.333,-0.112,-1.195,-0.021,0.097,-0.038,-1.195,0.401,-0.598,-85.617,1.932,0.438,-0.038,-0.029,0.000,0.020,0.037,0.001,0.216,-0.142,-0.005,0.340,0.000,1,1,1,1,-0.004,-0.004,0.030,-0.234,0.001,0.001,0.000,0.000,0.234,0.001,0.000,0
20260703_204435,case01_baseline_boxes,6,294.5,1.000,18.743,522.688,-1.429,750.171,-10.108,0.075,0.818,36.507,-0.500,-1.052,-0.018,0.489,-0.067,-1.055,0.573,-0.445,-85.620,1.721,1.524,-0.029,-0.025,-0.001,0.034,0.043,-0.009,0.140,-0.176,-0.006,0.343,0.000,1,1,1,1,0.001,0.003,0.049,0.263,0.003,0.003,0.000,0.000,0.263,0.003,0.000,0
20260703_204435,case01_baseline_boxes,6,294.5,1.000,18.855,521.554,-1.424,750.262,-10.106,0.021,0.809,36.499,0.015,-0.547,-0.090,-0.024,-0.096,-0.546,0.735,-0.227,-85.623,1.617,2.180,-0.029,-0.020,0.000,0.036,0.044,0.005,0.029,-0.217,-0.007,0.336,0.000,1,1,1,1,-0.002,-0.003,0.039,-0.158,0.003,0.003,0.000,0.000,0.158,0.003,0.000,0
20260703_204435,case01_baseline_boxes,6,294.5,1.000,18.959,520.500,-1.423,750.345,-10.139,0.008,0.801,36.612,-0.323,-0.130,-0.076,0.317,-0.102,-0.129,0.858,-0.030,-85.626,1.230,1.978,-0.035,-0.016,0.000,0.032,0.042,-0.004,-0.044,-0.249,-0.008,0.332,0.000,1,1,1,1,-0.002,-0.003,0.041,-0.099,0.003,0.003,0.000,0.000,0.099,0.003,0.000,0
20260703_204435,case01_baseline_boxes,6,294.5,1.000,19.063,519.444,-1.422,750.427,-10.181,0.013,0.792,36.761,-0.421,0.055,-0.092,0.413,-0.123,0.058,0.952,0.128,-85.631,0.940,1.570,-0.051,-0.012,-0.001,0.023,0.046,-0.006,-0.095,-0.310,-0.010,0.329,0.000,1,1,1,1,0.000,0.001,0.046,0.065,0.004,0.004,0.000,0.000,0.065,0.004,0.000,0
20260703_204435,case01_baseline_boxes,6,294.5,1.000,19.183,518.217,-1.420,750.522,-10.215,0.019,0.781,36.882,-0.345,0.065,-0.114,0.335,-0.139,0.068,1.023,0.237,-85.640,0.716,1.090,-0.086,-0.007,-0.002,0.010,0.048,-0.004,-0.123,-0.352,-0.012,0.324,0.000,1,1,1,1,0.000,0.000,0.045,0.038,0.004,0.004,0.000,0.000,0.045,0.004,0.000,0
20260703_204435,case01_baseline_boxes,6,294.5,1.000,19.291,517.116,-1.418,750.605,-10.246,0.015,0.770,36.989,-0.306,-0.048,-0.102,0.298,-0.126,-0.044,1.054,0.267,-85.650,0.312,0.308,-0.104,-0.002,-0.002,0.000,0.042,-0.004,-0.100,-0.384,-0.013,0.319,0.000,1,1,1,1,0.000,0.000,0.044,0.034,0.004,0.004,0.000,0.000,0.044,0.004,0.000,0
20260703_204435,case01_baseline_boxes,6,294.5,1.000,19.403,515.967,-1.417,750.691,-10.273,0.000,0.761,37.085,-0.274,-0.150,-0.098,0.267,-0.121,-0.146,1.056,0.245,-85.664,0.018,-0.219,-0.137,0.002,-0.002,-0.007,0.040,-0.004,-0.072,-0.411,-0.014,0.315,0.000,1,1,1,1,0.000,0.000,0.043,0.033,0.003,0.003,0.000,0.000,0.043,0.003,0.000,0
20260703_204435,case01_baseline_boxes,6,294.5,1.000,19.507,514.897,-1.418,750.770,-10.295,-0.017,0.752,37.161,-0.218,-0.172,-0.086,0.211,-0.105,-0.169,1.032,0.193,-85.679,-0.238,-0.520,-0.154,0.005,-0.003,-0.011,0.035,-0.004,-0.037,-0.424,-0.014,0.312,0.000,1,1,1,1,0.000,0.000,0.041,0.032,0.003,0.003,0.000,0.000,0.041,0.003,0.000,0
20260703_204435,case01_baseline_boxes,6,294.5,1.000,19.619,513.742,-1.421,750.853,-10.316,-0.034,0.743,37.233,-0.208,-0.161,-0.091,0.201,-0.109,-0.159,0.982,0.123,-85.698,-0.501,-0.706,-0.192,0.009,-0.003,-0.012,0.036,-0.004,-0.013,-0.487,-0.015,0.309,0.000,1,1,1,1,0.000,0.000,0.040,0.031,0.004,0.004,0.000,0.000,0.040,0.004,0.000,0
20260703_204435,case01_baseline_boxes,6,294.5,1.000,19.731,512.586,-1.425,750.936,-10.335,-0.042,0.734,37.301,-0.196,-0.086,-0.093,0.189,-0.109,-0.084,0.911,0.054,-85.720,-0.719,-0.686,-0.217,0.012,-0.004,-0.011,0.035,-0.004,0.012,-0.507,-0.015,0.307,0.000,1,1,1,1,0.000,0.000,0.039,0.030,0.004,0.004,0.000,0.000,0.039,0.004,0.000,0
20260703_204435,case01_baseline_boxes,6,294.5,1.000,19.835,511.509,-1.430,751.013,-10.350,-0.041,0.726,37.352,-0.146,0.010,-0.072,0.141,-0.083,0.012,0.827,0.003,-85.742,-0.833,-0.514,-0.219,0.014,-0.004,-0.008,0.024,-0.002,0.023,-0.502,-0.017,0.305,0.000,1,1,1,1,0.000,0.000,0.038,0.029,0.003,0.003,0.000,0.000,0.038,0.003,0.000,0
20260703_204435,case01_baseline_boxes,6,294.5,1.000,19.943,510.392,-1.434,751.091,-10.365,-0.033,0.719,37.404,-0.151,0.079,-0.075,0.145,-0.085,0.080,0.728,-0.032,-85.766,-0.991,-0.351,-0.242,0.017,-0.004,-0.005,0.021,-0.002,0.031,-0.501,-0.017,0.302,0.000,1,1,1,1,0.000,0.000,0.038,0.028,0.003,0.003,0.000,0.000,0.038,0.003,0.000,0
20260703_204435,case01_baseline_boxes,6,294.5,1.000,20.043,509.354,-1.436,751.163,-10.378,-0.023,0.713,37.450,-0.132,0.103,-0.062,0.128,-0.070,0.103,0.628,-0.048,-85.790,-1.005,-0.153,-0.235,0.018,-0.004,-0.003,0.013,-0.002,0.027,-0.489,-0.016,0.301,0.000,1,1,1,1,0.000,0.000,0.038,0.028,0.003,0.003,0.000,0.000,0.038,0.003,0.000,0
20260703_204435,case01_baseline_boxes,6,294.5,1.000,20.147,508.273,-1.438,751.237,-10.391,-0.013,0.707,37.496,-0.131,0.103,-0.052,0.127,-0.060,0.104,0.518,-0.048,-85.815,-1.095,-0.002,-0.250,0.019,-0.004,0.000,0.007,-0.001,0.023,-0.527,-0.016,0.299,0.000,1,1,1,1,0.000,0.000,0.039,0.028,0.003,0.003,0.000,0.000,0.039,0.003,0.000,0
20260703_204435,case01_baseline_boxes,6,294.5,1.000,20.251,507.195,-1.439,751.311,-10.406,-0.004,0.703,37.547,-0.145,0.089,-0.046,0.141,-0.056,0.089,0.408,-0.036,-85.840,-1.104,0.117,-0.251,0.019,-0.004,0.001,0.000,0.000,0.017,-0.518,-0.017,0.297,0.000,1,1,1,1,0.000,0.000,0.039,0.028,0.003,0.003,0.000,0.000,0.039,0.003,0.000,0
20260703_204435,case01_baseline_boxes,6,294.5,1.000,20.359,506.068,-1.439,751.387,-10.419,0.001,0.700,37.594,-0.133,0.047,-0.033,0.131,-0.042,0.048,0.295,-0.016,-85.866,-1.129,0.197,-0.264,0.018,-0.004,0.002,-0.006,0.000,0.008,-0.499,-0.017,0.295,0.000,1,1,1,1,0.000,0.000,0.040,0.027,0.003,0.003,0.000,0.000,0.040,0.003,0.000,0
20260703_204435,case01_baseline_boxes,6,294.5,1.000,20.463,504.988,-1.439,751.460,-10.434,0.003,0.697,37.646,-0.147,0.015,-0.027,0.145,-0.038,0.016,0.192,0.005,-85.891,-1.026,0.211,-0.252,0.017,-0.004,0.002,-0.012,0.000,0.001,-0.486,-0.016,0.293,0.000,1,1,1,1,0.000,0.000,0.040,0.027,0.002,0.002,0.000,0.000,0.040,0.002,0.000,0
20260703_204435,case01_baseline_boxes,6,294.5,1.000,20.571,503.859,-1.439,751.535,-10.449,0.001,0.695,37.698,-0.147,-0.014,-0.018,0.145,-0.028,-0.014,0.094,0.025,-85.918,-0.982,0.201,-0.262,0.015,-0.004,0.002,-0.018,0.000,-0.005,-0.474,-0.016,0.291,0.000,1,1,1,1,0.000,0.000,0.041,0.027,0.002,0.002,0.000,0.000,0.041,0.002,0.000,0
20260703_204435,case01_baseline_boxes,6,294.5,1.000,20.679,502.728,-1.439,751.611,-10.462,-0.001,0.694,37.745,-0.131,-0.026,-0.010,0.130,-0.019,-0.026,0.007,0.040,-85.944,-0.865,0.152,-0.260,0.013,-0.004,0.001,-0.019,0.000,-0.007,-0.507,-0.017,0.289,0.000,1,1,1,1,0.000,0.000,0.041,0.027,0.003,0.003,0.000,0.000,0.041,0.003,0.000,0
20260703_204435,case01_baseline_boxes,6,294.5,1.000,20.783,501.638,-1.439,751.683,-10.476,-0.004,0.693,37.795,-0.139,-0.030,-0.006,0.138,-0.016,-0.030,-0.063,0.049,-85.969,-0.706,0.086,-0.249,0.011,-0.004,0.000,-0.024,0.000,-0.009,-0.499,-0.017,0.287,0.000,1,1,1,1,0.000,0.000,0.041,0.026,0.002,0.002,0.000,0.000,0.041,0.002,0.000,0
20260703_204435,case01_baseline_boxes,6,294.5,1.000,20.887,500.548,-1.440,751.756,-10.488,-0.007,0.693,37.838,-0.121,-0.021,-0.001,0.121,-0.010,-0.021,-0.120,0.052,-85.993,-0.571,0.027,-0.249,0.008,-0.004,-0.001,-0.023,0.000,-0.007,-0.486,-0.016,0.285,0.000,1,1,1,1,0.000,0.000,0.041,0.026,0.002,0.002,0.000,0.000,0.041,0.002,0.000,0
20260703_204435,case01_baseline_boxes,6,294.5,1.000,20.999,499.374,-1.441,751.834,-10.501,-0.008,0.693,37.884,-0.128,-0.011,0.000,0.128,-0.009,-0.011,-0.166,0.049,-86.020,-0.457,-0.026,-0.266,0.006,-0.004,-0.001,-0.026,0.000,-0.006,-0.479,-0.016,0.283,0.000,1,1,1,1,0.000,0.000,0.041,0.027,0.002,0.002,-0.001,-0.001,0.041,0.002,0.000,0
20260703_204435,case01_baseline_boxes,6,294.5,1.000,21.103,498.283,-1.441,751.906,-10.512,-0.007,0.693,37.926,-0.118,0.004,-0.002,0.117,-0.010,0.004,-0.194,0.043,-86.045,-0.278,-0.059,-0.249,0.003,-0.004,-0.001,-0.025,0.000,-0.003,-0.477,-0.016,0.281,0.000,1,1,1,1,0.000,0.000,0.040,0.024,0.002,0.002,-0.001,-0.001,0.040,0.002,0.000,0
20260703_204435,case01_baseline_boxes,6,294.5,1.000,21.203,497.227,-1.442,751.976,-10.522,-0.006,0.693,37.963,-0.102,0.014,-0.003,0.101,-0.010,0.014,-0.208,0.036,-86.069,-0.139,-0.071,-0.242,0.001,-0.004,-0.001,-0.022,0.000,0.000,-0.511,-0.017,0.280,0.000,1,1,1,1,0.000,0.000,0.040,0.022,0.002,0.002,-0.001,-0.001,0.040,0.002,0.000,0
20260703_204435,case01_baseline_boxes,6,294.5,1.000,21.315,496.050,-1.442,752.053,-10.534,-0.004,0.692,38.004,-0.114,0.024,-0.004,0.113,-0.011,0.024,-0.209,0.028,-86.096,-0.013,-0.079,-0.272,-0.001,-0.004,-0.001,-0.022,-0.001,0.003,-0.502,-0.017,0.278,0.000,1,1,1,1,0.000,0.000,0.040,0.033,0.002,0.002,-0.001,-0.001,0.040,0.002,0.000,0
20260703_204435,case01_baseline_boxes,6,294.5,1.000,21.419,494.952,-1.443,752.125,-10.543,-0.001,0.692,38.038,-0.096,0.025,-0.004,0.095,-0.011,0.025,-0.198,0.022,-86.122,0.112,-0.061,-0.255,-0.003,-0.004,-0.001,-0.018,0.000,0.004,-0.486,-0.016,0.277,0.000,1,1,1,1,0.000,0.000,0.039,0.038,0.002,0.002,-0.001,-0.001,0.039,0.002,0.000,0
20260703_204435,case01_baseline_boxes,6,294.5,1.000,21.531,493.775,-1.443,752.202,-10.555,0.002,0.691,38.078,-0.113,0.030,-0.009,0.112,-0.017,0.030,-0.174,0.018,-86.149,0.239,-0.043,-0.271,-0.005,-0.004,0.000,-0.019,0.000,0.005,-0.487,-0.016,0.276,0.000,1,1,1,1,0.000,0.000,0.039,0.047,0.002,0.002,0.000,0.000,0.047,0.002,0.000,0
20260703_204435,case01_baseline_boxes,6,294.5,1.000,21.635,492.676,-1.442,752.274,-10.564,0.004,0.690,38.111,-0.092,0.022,-0.014,0.091,-0.020,0.022,-0.142,0.016,-86.174,0.319,-0.018,-0.253,-0.006,-0.004,0.000,-0.013,-0.001,0.004,-0.481,-0.016,0.274,0.000,1,1,1,1,0.000,0.000,0.039,0.056,0.002,0.002,0.000,0.000,0.056,0.002,0.000,0
20260703_204435,case01_baseline_boxes,6,294.5,1.000,21.743,491.533,-1.442,752.348,-10.568,0.006,0.687,38.126,-0.043,0.019,-0.028,0.041,-0.031,0.019,-0.101,0.016,-86.201,0.412,0.002,-0.267,-0.007,-0.004,0.001,-0.012,0.000,0.003,-0.534,-0.016,0.272,0.000,1,1,1,1,-0.001,-0.001,0.037,-0.024,0.003,0.003,0.000,0.000,0.037,0.003,0.000,0
20260703_204435,case01_baseline_boxes,6,294.5,1.000,21.847,490.437,-1.441,752.419,-10.574,0.007,0.684,38.147,-0.060,0.012,-0.029,0.058,-0.033,0.012,-0.055,0.018,-86.227,0.452,0.017,-0.262,-0.008,-0.004,0.001,-0.008,0.000,0.002,-0.531,-0.018,0.271,0.000,1,1,1,1,-0.001,-0.001,0.037,-0.056,0.003,0.003,0.000,0.000,0.056,0.003,0.000,0
20260703_204435,case01_baseline_boxes,6,294.5,1.000,21.947,489.373,-1.440,752.487,-10.573,0.008,0.680,38.143,0.008,0.006,-0.039,-0.011,-0.039,0.006,-0.008,0.020,-86.253,0.477,0.024,-0.259,-0.008,-0.004,0.001,-0.005,0.001,0.000,-0.530,-0.018,0.269,0.000,1,1,1,1,-0.002,-0.003,0.035,-0.162,0.002,0.002,0.000,0.000,0.162,0.002,0.000,0
20260703_204435,case01_baseline_boxes,6,294.5,1.000,22.055,488.231,-1.439,752.560,-10.609,0.008,0.677,38.270,-0.355,0.001,-0.028,0.352,-0.051,0.001,0.046,0.023,-86.282,0.535,0.028,-0.286,-0.009,-0.005,0.001,-0.002,-0.009,0.002,-0.538,-0.018,0.272,0.000,1,1,1,1,0.002,0.004,0.042,0.243,0.003,0.003,0.000,0.000,0.243,0.003,0.000,0
20260703_204435,case01_baseline_boxes,6,294.5,1.000,22.175,486.962,-1.438,752.641,-10.618,0.008,0.672,38.301,-0.090,-0.004,-0.058,0.086,-0.063,-0.004,0.106,0.026,-86.315,0.601,0.028,-0.331,-0.009,-0.005,0.001,0.001,-0.002,-0.001,-0.556,-0.019,0.270,0.000,1,1,1,1,0.002,0.004,0.041,0.237,0.003,0.003,0.000,0.000,0.237,0.003,0.000,0
20260703_204435,case01_baseline_boxes,6,294.5,1.000,22.283,485.813,-1.438,752.713,-10.598,0.007,0.664,38.227,0.201,-0.008,-0.080,-0.205,-0.067,-0.008,0.159,0.028,-86.346,0.531,0.019,-0.311,-0.008,-0.005,0.001,0.003,0.006,-0.004,-0.562,-0.019,0.265,0.000,1,1,1,1,-0.002,-0.004,0.032,-0.188,0.002,0.002,0.000,0.000,0.188,0.002,0.000,0
20260703_204435,case01_baseline_boxes,6,294.5,1.000,22.391,484.667,-1.437,752.784,-10.634,0.006,0.659,38.354,-0.358,-0.009,-0.049,0.354,-0.071,-0.009,0.209,0.029,-86.378,0.500,0.010,-0.320,-0.008,-0.006,0.001,0.006,-0.010,0.001,-0.568,-0.019,0.268,0.000,1,1,1,1,0.001,0.004,0.041,0.228,0.003,0.003,0.000,0.000,0.228,0.003,0.000,0
20260703_204435,case01_baseline_boxes,6,294.5,1.000,22.491,483.604,-1.436,752.850,-10.640,0.005,0.652,38.378,-0.069,-0.009,-0.065,0.064,-0.070,-0.009,0.252,0.029,-86.408,0.426,0.003,-0.306,-0.007,-0.006,0.001,0.007,-0.001,-0.002,-0.620,-0.019,0.267,0.000,1,1,1,1,0.001,0.004,0.040,0.224,0.004,0.004,0.000,0.000,0.224,0.004,0.000,0
20260703_204435,case01_baseline_boxes,6,294.5,1.000,22.615,482.286,-1.436,752.930,-10.648,0.004,0.644,38.404,-0.079,-0.011,-0.083,0.074,-0.088,-0.010,0.298,0.029,-86.447,0.465,-0.003,-0.390,-0.006,-0.006,0.000,0.010,-0.001,-0.002,-0.632,-0.019,0.266,0.000,1,1,1,1,0.001,0.004,0.040,0.220,0.004,0.004,0.000,0.000,0.220,0.004,0.000,0
20260703_204435,case01_baseline_boxes,6,294.5,1.000,22.727,481.097,-1.435,753.001,-10.629,0.003,0.634,38.334,0.189,-0.010,-0.097,-0.195,-0.086,-0.009,0.333,0.028,-86.484,0.350,-0.008,-0.361,-0.005,-0.005,0.000,0.010,0.006,-0.003,-0.634,-0.019,0.261,0.000,1,1,1,1,-0.002,-0.004,0.032,-0.175,0.003,0.003,0.000,0.000,0.175,0.003,0.000,0
20260703_204435,case01_baseline_boxes,6,294.5,1.000,22.835,479.947,-1.435,753.069,-10.662,0.002,0.628,38.450,-0.326,-0.008,-0.064,0.322,-0.084,-0.008,0.360,0.027,-86.519,0.269,-0.009,-0.355,-0.004,-0.006,0.000,0.012,-0.008,0.001,-0.632,-0.021,0.264,0.000,1,1,1,1,0.001,0.003,0.039,0.214,0.004,0.004,0.000,0.000,0.214,0.004,0.000,0
20260703_204435,case01_baseline_boxes,6,294.5,1.000,22.943,478.795,-1.435,753.136,-10.643,0.001,0.618,38.380,0.188,-0.008,-0.101,-0.194,-0.089,-0.008,0.380,0.026,-86.555,0.198,-0.009,-0.361,-0.003,-0.006,0.000,0.011,0.006,-0.003,-0.629,-0.021,0.259,0.000,1,1,1,1,-0.002,-0.004,0.031,-0.171,0.003,0.003,0.000,0.000,0.171,0.003,0.000,0
20260703_204435,case01_baseline_boxes,6,294.5,1.000,23.047,477.690,-1.435,753.200,-10.649,0.001,0.610,38.400,-0.059,-0.007,-0.077,0.054,-0.081,-0.006,0.392,0.026,-86.590,0.124,-0.007,-0.350,-0.002,-0.006,0.000,0.011,-0.001,0.000,-0.617,-0.021,0.258,0.000,1,1,1,1,-0.002,-0.004,0.031,-0.170,0.003,0.003,0.000,0.000,0.170,0.003,0.000,0
20260703_204435,case01_baseline_boxes,6,294.5,1.000,23.155,476.535,-1.435,753.266,-10.680,0.000,0.603,38.511,-0.313,-0.007,-0.070,0.308,-0.088,-0.006,0.398,0.025,-86.627,0.060,-0.005,-0.369,0.000,-0.006,0.000,0.012,-0.007,0.002,-0.612,-0.021,0.261,0.000,1,1,1,1,0.001,0.003,0.039,0.211,0.003,0.003,0.000,0.000,0.211,0.003,0.000,0
20260703_204435,case01_baseline_boxes,6,294.5,1.000,23.263,475.380,-1.435,753.331,-10.661,-0.001,0.593,38.440,0.192,-0.006,-0.101,-0.198,-0.090,-0.006,0.398,0.025,-86.664,-0.006,-0.002,-0.373,0.001,-0.006,0.000,0.010,0.007,-0.002,-0.608,-0.020,0.257,0.000,1,1,1,1,-0.002,-0.004,0.031,-0.170,0.002,0.002,0.000,0.000,0.170,0.002,0.000,0
20260703_204435,case01_baseline_boxes,6,294.5,1.000,23.375,474.190,-1.435,753.396,-10.692,-0.001,0.586,38.549,-0.309,-0.006,-0.070,0.304,-0.087,-0.005,0.391,0.025,-86.703,-0.069,0.000,-0.384,0.002,-0.006,0.000,0.010,-0.007,0.002,-0.604,-0.020,0.260,0.000,1,1,1,1,0.001,0.003,0.039,0.211,0.003,0.003,0.000,0.000,0.211,0.003,0.000,0
20260703_204435,case01_baseline_boxes,6,294.5,1.000,23.479,473.078,-1.435,753.457,-10.697,-0.002,0.578,38.566,-0.051,-0.005,-0.077,0.046,-0.080,-0.004,0.379,0.025,-86.739,-0.115,0.001,-0.362,0.002,-0.006,0.000,0.007,0.000,0.000,-0.650,-0.020,0.259,0.000,1,1,1,1,0.001,0.003,0.039,0.212,0.004,0.004,0.000,0.000,0.212,0.004,0.000,0
20260703_204435,case01_baseline_boxes,6,294.5,1.000,23.583,471.963,-1.435,753.517,-10.677,-0.002,0.569,38.491,0.203,-0.005,-0.095,-0.208,-0.083,-0.005,0.363,0.025,-86.775,-0.158,0.001,-0.362,0.003,-0.006,0.000,0.007,0.007,-0.003,-0.642,-0.022,0.255,0.000,1,1,1,1,-0.002,-0.004,0.031,-0.173,0.003,0.003,0.000,0.000,0.173,0.003,0.000,0
20260703_204435,case01_baseline_boxes,6,294.5,1.000,23.687,470.852,-1.436,753.576,-10.681,-0.002,0.561,38.506,-0.045,-0.004,-0.073,0.041,-0.075,-0.003,0.344,0.025,-86.811,-0.192,0.002,-0.360,0.003,-0.006,0.000,0.005,0.000,0.000,-0.624,-0.021,0.254,0.000,1,1,1,1,-0.002,-0.004,0.031,-0.175,0.003,0.003,0.000,0.000,0.175,0.003,0.000,0
20260703_204435,case01_baseline_boxes,6,294.5,1.000,23.799,469.652,-1.436,753.638,-10.712,-0.003,0.555,38.616,-0.310,-0.003,-0.061,0.306,-0.077,-0.002,0.321,0.025,-86.850,-0.236,0.002,-0.391,0.004,-0.006,0.000,0.004,-0.007,0.002,-0.621,-0.021,0.257,0.000,1,1,1,1,0.001,0.004,0.039,0.217,0.003,0.003,0.000,0.000,0.217,0.003,0.000,0
20260703_204435,case01_baseline_boxes,6,294.5,1.000,23.911,468.453,-1.436,753.700,-10.718,-0.003,0.547,38.634,-0.053,-0.002,-0.083,0.049,-0.086,-0.002,0.295,0.025,-86.889,-0.255,0.000,-0.388,0.004,-0.006,0.000,0.002,0.000,0.000,-0.626,-0.021,0.256,0.000,1,1,1,1,0.001,0.004,0.039,0.219,0.003,0.003,0.000,0.000,0.219,0.003,0.000,0
20260703_204435,case01_baseline_boxes,6,294.5,1.000,24.019,467.300,-1.436,753.759,-10.722,-0.003,0.540,38.648,-0.042,-0.001,-0.065,0.039,-0.067,0.000,0.270,0.025,-86.927,-0.255,0.000,-0.376,0.004,-0.006,0.000,0.001,0.000,0.000,-0.611,-0.021,0.256,0.000,1,1,1,1,0.001,0.004,0.039,0.221,0.003,0.003,0.000,0.000,0.221,0.003,0.000,0
20260703_204435,case01_baseline_boxes,6,294.5,1.000,24.131,466.098,-1.437,753.819,-10.727,-0.003,0.533,38.664,-0.049,0.000,-0.078,0.045,-0.081,0.001,0.243,0.025,-86.966,-0.264,-0.002,-0.389,0.004,-0.006,0.000,-0.001,0.000,0.000,-0.618,-0.021,0.255,0.000,1,1,1,1,0.001,0.004,0.039,0.223,0.003,0.003,0.000,0.000,0.223,0.003,0.000,0
20260703_204435,case01_baseline_boxes,6,294.5,1.000,24.239,464.941,-1.437,753.876,-10.731,-0.003,0.526,38.677,-0.039,0.001,-0.062,0.036,-0.064,0.002,0.219,0.025,-87.003,-0.246,-0.001,-0.379,0.004,-0.006,0.000,-0.002,0.000,0.000,-0.606,-0.020,0.255,0.000,1,1,1,1,0.001,0.004,0.039,0.225,0.003,0.003,0.000,0.000,0.225,0.003,0.000,0
20260703_204435,case01_baseline_boxes,6,294.5,1.000,24.343,463.831,-1.437,753.930,-10.707,-0.003,0.518,38.591,0.236,0.002,-0.083,-0.240,-0.071,0.002,0.197,0.025,-87.040,-0.221,-0.002,-0.363,0.004,-0.006,0.000,-0.003,0.008,-0.002,-0.603,-0.020,0.250,0.000,1,1,1,1,-0.002,-0.004,0.031,-0.186,0.002,0.002,0.000,0.000,0.186,0.002,0.000,0
20260703_204435,case01_baseline_boxes,6,294.5,1.000,24.451,462.671,-1.438,753.986,-10.739,-0.002,0.513,38.704,-0.317,0.003,-0.051,0.314,-0.067,0.004,0.176,0.025,-87.077,-0.210,-0.002,-0.377,0.003,-0.007,0.000,-0.004,-0.008,0.003,-0.660,-0.020,0.254,0.000,1,1,1,1,0.001,0.004,0.039,0.228,0.004,0.004,0.000,0.000,0.228,0.004,0.000,0
20260703_204435,case01_baseline_boxes,6,294.5,1.000,24.555,461.554,-1.438,754.039,-10.742,-0.002,0.507,38.716,-0.035,0.003,-0.058,0.032,-0.060,0.004,0.158,0.025,-87.114,-0.176,-0.001,-0.367,0.003,-0.007,0.000,-0.004,0.000,0.000,-0.648,-0.022,0.253,0.000,1,1,1,1,0.001,0.004,0.039,0.229,0.003,0.003,0.000,0.000,0.229,0.003,0.000,0
20260703_204435,case01_baseline_boxes,6,294.5,1.000,24.659,460.439,-1.438,754.091,-10.746,-0.002,0.501,38.727,-0.033,0.004,-0.059,0.030,-0.061,0.004,0.143,0.024,-87.151,-0.148,-0.001,-0.368,0.002,-0.007,0.000,-0.005,0.000,0.000,-0.641,-0.022,0.253,0.000,1,1,1,1,0.001,0.004,0.039,0.230,0.003,0.003,0.000,0.000,0.230,0.003,0.000,0
20260703_204435,case01_baseline_boxes,6,294.5,1.000,24.763,459.324,-1.438,754.143,-10.721,-0.001,0.493,38.637,0.247,0.004,-0.081,-0.251,-0.068,0.004,0.131,0.024,-87.188,-0.118,-0.001,-0.369,0.002,-0.006,0.000,-0.006,0.007,-0.002,-0.642,-0.022,0.248,0.000,1,1,1,1,-0.002,-0.004,0.031,-0.190,0.003,0.003,0.000,0.000,0.190,0.003,0.000,0
20260703_204435,case01_baseline_boxes,6,294.5,1.000,24.867,458.208,-1.438,754.194,-10.724,-0.001,0.487,38.647,-0.031,0.004,-0.063,0.028,-0.064,0.004,0.123,0.024,-87.225,-0.087,-0.001,-0.374,0.001,-0.006,0.000,-0.005,-0.001,0.000,-0.636,-0.021,0.248,0.000,1,1,1,1,-0.002,-0.004,0.031,-0.190,0.002,0.002,0.000,0.000,0.190,0.002,0.000,0
20260703_204435,case01_baseline_boxes,6,294.5,1.000,24.971,457.090,-1.438,754.245,-10.756,0.000,0.481,38.759,-0.316,0.004,-0.053,0.313,-0.068,0.005,0.117,0.024,-87.263,-0.055,0.000,-0.380,0.001,-0.007,0.000,-0.005,-0.009,0.003,-0.641,-0.022,0.251,0.000,1,1,1,1,0.002,0.004,0.039,0.230,0.003,0.003,0.000,0.000,0.230,0.003,0.000,0
20260703_204435,case01_baseline_boxes,6,294.5,1.000,25.081,455.911,-1.438,754.297,-10.731,0.000,0.473,38.668,0.251,0.004,-0.084,-0.255,-0.072,0.004,0.115,0.024,-87.304,-0.025,0.001,-0.410,0.000,-0.006,0.000,-0.006,0.007,-0.002,-0.646,-0.022,0.247,0.000,1,1,1,1,-0.002,-0.004,0.031,-0.189,0.002,0.002,0.000,0.000,0.189,0.002,0.000,0
20260703_204435,case01_baseline_boxes,6,294.5,1.000,25.187,454.771,-1.438,754.347,-10.733,0.000,0.467,38.677,-0.028,0.003,-0.064,0.025,-0.066,0.003,0.115,0.024,-87.344,0.006,0.000,-0.398,0.000,-0.006,0.000,-0.004,-0.001,0.000,-0.697,-0.021,0.246,0.000,1,1,1,1,-0.002,-0.004,0.031,-0.189,0.003,0.003,0.000,0.000,0.189,0.003,0.000,0
20260703_204435,case01_baseline_boxes,6,294.5,1.000,25.291,453.649,-1.438,754.395,-10.765,0.001,0.461,38.788,-0.311,0.003,-0.057,0.308,-0.071,0.004,0.119,0.024,-87.383,0.033,0.000,-0.395,-0.001,-0.007,0.000,-0.004,-0.008,0.003,-0.703,-0.024,0.250,0.000,1,1,1,1,0.001,0.004,0.038,0.228,0.004,0.004,0.000,0.000,0.228,0.004,0.000,0
20260703_204435,case01_baseline_boxes,6,294.5,1.000,25.399,452.488,-1.438,754.445,-10.767,0.001,0.454,38.796,-0.026,0.003,-0.067,0.023,-0.068,0.003,0.124,0.025,-87.425,0.059,0.001,-0.417,-0.001,-0.007,0.000,-0.004,-0.001,0.000,-0.696,-0.023,0.250,0.000,1,1,1,1,0.001,0.004,0.038,0.228,0.003,0.003,0.000,0.000,0.228,0.003,0.000,0
20260703_204435,case01_baseline_boxes,6,294.5,1.000,25.503,451.368,-1.438,754.492,-10.742,0.001,0.445,38.705,0.251,0.002,-0.091,-0.254,-0.080,0.002,0.132,0.025,-87.466,0.077,0.000,-0.406,-0.001,-0.006,0.000,-0.004,0.006,-0.002,-0.704,-0.024,0.245,0.000,1,1,1,1,-0.002,-0.004,0.030,-0.187,0.003,0.003,0.000,0.000,0.187,0.003,0.000,0
20260703_204435,case01_baseline_boxes,6,294.5,1.000,25.611,450.212,-1.438,754.539,-10.772,0.001,0.439,38.813,-0.304,0.002,-0.066,0.301,-0.079,0.002,0.142,0.025,-87.508,0.097,0.000,-0.425,-0.002,-0.007,0.000,-0.002,-0.009,0.002,-0.707,-0.024,0.249,0.000,1,1,1,1,0.001,0.004,0.038,0.225,0.003,0.003,0.000,0.000,0.225,0.003,0.000,0
20260703_204435,case01_baseline_boxes,6,294.5,1.000,25.715,449.088,-1.438,754.584,-10.775,0.001,0.431,38.820,-0.023,0.001,-0.075,0.020,-0.076,0.001,0.153,0.025,-87.551,0.107,0.001,-0.422,-0.002,-0.007,0.000,-0.002,-0.001,0.000,-0.703,-0.024,0.249,0.000,1,1,1,1,0.001,0.004,0.038,0.224,0.003,0.003,0.000,0.000,0.224,0.003,0.000,0
20260703_204435,case01_baseline_boxes,6,294.5,1.000,25.827,447.884,-1.438,754.632,-10.750,0.001,0.421,38.730,0.248,0.001,-0.097,-0.252,-0.087,0.001,0.165,0.025,-87.596,0.124,0.000,-0.458,-0.002,-0.007,0.000,-0.001,0.006,-0.002,-0.711,-0.024,0.244,0.000,1,1,1,1,-0.002,-0.004,0.030,-0.183,0.003,0.003,0.000,0.000,0.183,0.003,0.000,0
20260703_204435,case01_baseline_boxes,6,294.5,1.000,25.939,446.677,-1.438,754.679,-10.780,0.002,0.414,38.835,-0.296,0.000,-0.076,0.293,-0.088,0.001,0.178,0.025,-87.643,0.128,0.000,-0.468,-0.002,-0.008,0.000,0.000,-0.009,0.002,-0.715,-0.024,0.248,0.000,1,1,1,1,0.001,0.004,0.038,0.221,0.003,0.003,0.000,0.000,0.221,0.003,0.000,0
20260703_204435,case01_baseline_boxes,6,294.5,1.000,26.059,445.387,-1.437,754.728,-10.782,0.001,0.404,38.843,-0.025,0.000,-0.097,0.021,-0.098,0.000,0.192,0.025,-87.694,0.137,0.000,-0.508,-0.002,-0.008,0.000,0.000,-0.001,0.000,-0.731,-0.025,0.247,0.000,1,1,1,1,0.001,0.004,0.038,0.220,0.003,0.003,0.000,0.000,0.220,0.003,0.000,0
20260703_204435,case01_baseline_boxes,6,294.5,1.000,26.163,444.267,-1.437,754.769,-10.758,0.001,0.394,38.753,0.245,-0.001,-0.102,-0.249,-0.093,-0.001,0.203,0.025,-87.739,0.115,0.000,-0.446,-0.002,-0.007,0.000,0.001,0.007,-0.002,-0.739,-0.025,0.243,0.000,1,1,1,1,-0.002,-0.004,0.030,-0.179,0.003,0.003,0.001,0.001,0.179,0.003,0.000,0
20260703_204435,case01_baseline_boxes,6,294.5,1.000,26.275,443.062,-1.437,754.813,-10.786,0.001,0.385,38.856,-0.288,-0.001,-0.084,0.284,-0.095,0.000,0.215,0.025,-87.787,0.116,0.000,-0.486,-0.002,-0.008,0.000,0.002,-0.009,0.002,-0.746,-0.025,0.247,0.000,1,1,1,1,0.001,0.004,0.038,0.217,0.003,0.003,0.000,0.000,0.217,0.003,0.000,0
20260703_204435,case01_baseline_boxes,6,294.5,1.000,26.383,441.895,-1.437,754.854,-10.762,0.001,0.375,38.767,0.243,-0.002,-0.107,-0.247,-0.097,-0.001,0.225,0.025,-87.835,0.102,0.000,-0.479,-0.002,-0.007,0.000,0.002,0.006,-0.002,-0.750,-0.025,0.243,0.000,1,1,1,1,-0.002,-0.004,0.030,-0.177,0.003,0.003,0.001,0.001,0.177,0.003,0.000,0
20260703_204435,case01_baseline_boxes,6,294.5,1.000,26.487,440.778,-1.437,754.892,-10.764,0.001,0.366,38.773,-0.019,-0.002,-0.089,0.016,-0.090,-0.001,0.233,0.025,-87.881,0.085,0.000,-0.462,-0.001,-0.007,0.000,0.002,-0.001,0.000,-0.745,-0.025,0.243,0.000,1,1,1,1,-0.002,-0.004,0.030,-0.176,0.003,0.003,0.001,0.001,0.176,0.003,0.000,0
20260703_204435,case01_baseline_boxes,6,294.5,1.000,26.591,439.653,-1.437,754.930,-10.792,0.001,0.357,38.873,-0.281,-0.002,-0.091,0.278,-0.101,-0.001,0.241,0.025,-87.928,0.073,0.000,-0.471,-0.001,-0.008,0.000,0.003,-0.009,0.002,-0.823,-0.025,0.246,0.000,1,1,1,1,0.001,0.004,0.037,0.215,0.004,0.004,0.000,0.000,0.215,0.004,0.000,0
20260703_204435,case01_baseline_boxes,6,294.5,1.000,26.701,438.463,-1.437,754.969,-10.768,0.001,0.346,38.784,0.241,-0.002,-0.111,-0.245,-0.103,-0.002,0.247,0.025,-87.979,0.061,0.000,-0.506,-0.001,-0.008,0.000,0.002,0.006,-0.002,-0.828,-0.025,0.242,0.000,1,1,1,1,-0.002,-0.004,0.030,-0.175,0.004,0.004,0.001,0.001,0.175,0.004,0.000,0
20260703_204435,case01_baseline_boxes,6,294.5,1.000,26.803,437.369,-1.437,755.003,-10.770,0.000,0.336,38.789,-0.017,-0.002,-0.092,0.013,-0.092,-0.001,0.251,0.025,-88.026,0.041,0.000,-0.470,-0.001,-0.008,0.000,0.002,-0.001,0.000,-0.818,-0.028,0.242,0.000,1,1,1,1,-0.002,-0.004,0.030,-0.175,0.004,0.004,0.001,0.001,0.175,0.004,0.000,0
20260703_204435,case01_baseline_boxes,6,294.5,1.000,26.915,436.161,-1.437,755.040,-10.797,0.000,0.327,38.888,-0.277,-0.002,-0.093,0.273,-0.102,-0.001,0.254,0.025,-88.078,0.029,0.000,-0.523,0.000,-0.009,0.000,0.003,-0.008,0.002,-0.823,-0.028,0.245,0.000,1,1,1,1,0.001,0.004,0.037,0.213,0.004,0.004,0.000,0.000,0.213,0.004,0.000,0
20260703_204435,case01_baseline_boxes,6,294.5,1.000,27.027,434.951,-1.437,755.076,-10.773,0.000,0.316,38.800,0.242,-0.002,-0.113,-0.246,-0.105,-0.002,0.255,0.025,-88.131,0.013,0.000,-0.529,0.000,-0.008,0.000,0.002,0.006,-0.002,-0.830,-0.028,0.241,0.000,1,1,1,1,-0.002,-0.004,0.030,-0.174,0.004,0.004,0.001,0.001,0.174,0.004,0.000,0
20260703_204435,case01_baseline_boxes,6,294.5,1.000,27.127,433.871,-1.437,755.108,-10.774,0.000,0.306,38.804,-0.015,-0.002,-0.094,0.012,-0.095,-0.001,0.255,0.025,-88.179,-0.002,0.000,-0.477,0.000,-0.008,0.000,0.002,-0.001,0.000,-0.821,-0.028,0.241,0.000,1,1,1,1,-0.002,-0.004,0.030,-0.174,0.003,0.003,0.001,0.001,0.174,0.003,0.000,0
20260703_204435,case01_baseline_boxes,6,294.5,1.000,27.231,432.755,-1.437,755.139,-10.802,0.000,0.297,38.902,-0.274,-0.001,-0.097,0.271,-0.105,-0.001,0.254,0.025,-88.229,-0.014,0.000,-0.497,0.000,-0.009,0.000,0.002,-0.008,0.002,-0.830,-0.028,0.245,0.000,1,1,1,1,0.001,0.004,0.037,0.213,0.004,0.004,0.000,0.000,0.213,0.004,0.000,0
20260703_204435,case01_baseline_boxes,6,294.5,1.000,27.335,431.632,-1.437,755.169,-10.803,0.000,0.287,38.906,-0.014,-0.001,-0.097,0.011,-0.098,-0.001,0.251,0.025,-88.279,-0.024,0.000,-0.506,0.001,-0.009,0.000,0.002,-0.001,0.000,-0.824,-0.028,0.244,0.000,1,1,1,1,0.001,0.004,0.037,0.213,0.004,0.004,0.000,0.000,0.213,0.004,0.000,0
20260703_204435,case01_baseline_boxes,6,294.5,1.000,27.439,430.506,-1.437,755.199,-10.805,0.000,0.277,38.909,-0.013,-0.001,-0.096,0.010,-0.097,-0.001,0.248,0.025,-88.331,-0.034,0.000,-0.513,0.001,-0.009,0.000,0.001,-0.001,0.000,-0.755,-0.028,0.244,0.000,1,1,1,1,0.001,0.004,0.037,0.213,0.003,0.003,0.000,0.000,0.213,0.003,0.000,0
20260703_204435,case01_baseline_boxes,6,294.5,1.000,27.547,429.345,-1.437,755.228,-10.780,-0.001,0.267,38.820,0.247,-0.001,-0.106,-0.250,-0.099,-0.001,0.243,0.025,-88.383,-0.044,-0.001,-0.525,0.001,-0.008,0.000,0.001,0.008,-0.002,-0.765,-0.026,0.240,0.000,1,1,1,1,-0.002,-0.004,0.030,-0.176,0.002,0.002,0.001,0.001,0.176,0.002,0.000,0
20260703_204435,case01_baseline_boxes,6,294.5,1.000,27.659,428.132,-1.437,755.257,-10.807,-0.001,0.258,38.917,-0.274,0.000,-0.087,0.271,-0.095,0.000,0.238,0.025,-88.437,-0.052,0.000,-0.541,0.001,-0.009,0.000,0.001,-0.006,0.002,-0.783,-0.026,0.244,0.000,1,1,1,1,0.001,0.004,0.037,0.214,0.003,0.003,0.000,0.000,0.214,0.003,0.000,0
20260703_204435,case01_baseline_boxes,6,294.5,1.000,27.767,426.968,-1.437,755.285,-10.782,-0.001,0.247,38.827,0.249,-0.001,-0.111,-0.252,-0.104,0.000,0.233,0.024,-88.489,-0.054,-0.001,-0.515,0.001,-0.008,0.000,0.000,0.007,-0.002,-0.803,-0.027,0.240,0.000,1,1,1,1,-0.002,-0.004,0.030,-0.177,0.003,0.003,0.001,0.001,0.177,0.003,0.000,0
20260703_204435,case01_baseline_boxes,6,294.5,1.000,27.871,425.845,-1.437,755.310,-10.810,-0.001,0.237,38.925,-0.275,0.000,-0.100,0.272,-0.107,0.001,0.227,0.024,-88.539,-0.055,-0.001,-0.503,0.001,-0.009,0.000,0.000,-0.009,0.002,-0.824,-0.028,0.244,0.000,1,1,1,1,0.001,0.004,0.037,0.215,0.004,0.004,0.000,0.000,0.215,0.004,0.000,0
20260703_204435,case01_baseline_boxes,6,294.5,1.000,27.979,424.681,-1.437,755.335,-10.811,-0.001,0.227,38.928,-0.011,0.000,-0.102,0.008,-0.102,0.001,0.222,0.024,-88.592,-0.056,0.000,-0.534,0.001,-0.009,0.000,0.000,-0.002,0.000,-0.833,-0.028,0.243,0.000,1,1,1,1,0.001,0.004,0.037,0.216,0.004,0.004,0.000,0.000,0.216,0.004,0.000,0
20260703_204435,case01_baseline_boxes,6,294.5,1.000,28.083,423.554,-1.437,755.358,-10.786,-0.001,0.215,38.836,0.253,0.000,-0.122,-0.256,-0.116,0.001,0.216,0.024,-88.645,-0.052,0.000,-0.528,0.001,-0.009,0.000,-0.001,0.005,-0.002,-0.856,-0.029,0.239,0.000,1,1,1,1,-0.002,-0.004,0.030,-0.178,0.003,0.003,0.001,0.001,0.178,0.003,0.000,0
20260703_204435,case01_baseline_boxes,6,294.5,1.000,28.195,422.344,-1.437,755.381,-10.813,-0.001,0.204,38.934,-0.275,0.001,-0.107,0.273,-0.113,0.002,0.211,0.024,-88.703,-0.052,0.000,-0.580,0.001,-0.010,0.000,-0.001,-0.009,0.002,-0.873,-0.029,0.243,0.000,1,1,1,1,0.001,0.004,0.037,0.216,0.004,0.004,0.000,0.000,0.216,0.004,0.000,0
20260703_204435,case01_baseline_boxes,6,294.5,1.000,28.303,421.181,-1.437,755.402,-10.788,0.000,0.192,38.841,0.255,0.001,-0.123,-0.257,-0.118,0.001,0.207,0.024,-88.760,-0.045,0.000,-0.572,0.001,-0.009,0.000,-0.001,0.005,-0.002,-0.892,-0.030,0.239,0.000,1,1,1,1,-0.002,-0.004,0.030,-0.178,0.003,0.003,0.001,0.001,0.178,0.003,0.000,0
20260703_204435,case01_baseline_boxes,6,294.5,1.000,28.415,419.971,-1.437,755.423,-10.815,0.000,0.181,38.940,-0.275,0.001,-0.110,0.272,-0.116,0.002,0.203,0.024,-88.821,-0.039,-0.001,-0.608,0.001,-0.010,0.000,-0.001,-0.009,0.002,-0.908,-0.031,0.243,0.000,1,1,1,1,0.001,0.004,0.037,0.217,0.004,0.004,0.001,0.001,0.217,0.004,0.000,0
20260703_204435,case01_baseline_boxes,6,294.5,1.000,28.515,418.889,-1.437,755.441,-10.816,0.000,0.170,38.942,-0.008,0.001,-0.110,0.006,-0.110,0.001,0.200,0.024,-88.877,-0.028,0.000,-0.555,0.000,-0.010,0.000,-0.001,-0.002,0.000,-0.912,-0.031,0.243,0.000,1,1,1,1,0.001,0.004,0.037,0.217,0.004,0.004,0.001,0.001,0.217,0.004,0.000,0
20260703_204435,case01_baseline_boxes,6,294.5,1.000,28.619,417.765,-1.437,755.458,-10.817,0.000,0.158,38.944,-0.008,0.001,-0.112,0.006,-0.113,0.001,0.198,0.024,-88.936,-0.023,0.000,-0.588,0.000,-0.010,0.000,-0.001,-0.002,0.000,-0.994,-0.031,0.243,0.000,1,1,1,1,0.001,0.004,0.037,0.217,0.005,0.005,0.001,0.001,0.217,0.005,0.000,0
20260703_204435,case01_baseline_boxes,6,294.5,1.000,28.731,416.556,-1.437,755.475,-10.818,0.000,0.145,38.947,-0.009,0.001,-0.132,0.007,-0.132,0.002,0.196,0.024,-89.000,-0.016,0.000,-0.642,0.000,-0.011,0.000,-0.001,-0.002,0.000,-0.943,-0.032,0.242,0.000,1,1,1,1,0.001,0.004,0.037,0.217,0.004,0.004,0.001,0.001,0.217,0.004,0.000,0
20260703_204435,case01_baseline_boxes,6,294.5,1.000,28.839,415.390,-1.437,755.490,-10.818,0.000,0.134,38.949,-0.007,0.001,-0.114,0.005,-0.114,0.001,0.195,0.024,-89.063,-0.008,0.001,-0.632,0.000,-0.011,0.000,-0.001,-0.002,0.000,-1.025,-0.032,0.242,0.000,1,1,1,1,0.001,0.004,0.037,0.217,0.005,0.005,0.001,0.001,0.217,0.005,0.000,0
20260703_204435,case01_baseline_boxes,6,294.5,1.000,28.943,414.265,-1.437,755.503,-10.792,0.000,0.121,38.855,0.258,0.001,-0.129,-0.260,-0.125,0.001,0.195,0.024,-89.125,0.001,0.000,-0.618,0.000,-0.010,0.000,-0.002,0.006,-0.002,-0.953,-0.032,0.238,0.000,1,1,1,1,-0.002,-0.004,0.029,-0.179,0.003,0.003,0.001,0.001,0.179,0.003,0.000,0
20260703_204435,case01_baseline_boxes,6,294.5,1.000,29.051,413.101,-1.437,755.516,-10.820,0.000,0.109,38.953,-0.272,0.001,-0.122,0.271,-0.126,0.002,0.196,0.024,-89.189,0.008,-0.001,-0.645,0.000,-0.011,0.000,-0.001,-0.009,0.002,-0.967,-0.033,0.242,0.000,1,1,1,1,0.001,0.004,0.037,0.217,0.004,0.004,0.001,0.001,0.217,0.004,0.000,0
20260703_204435,case01_baseline_boxes,6,294.5,1.000,29.159,411.932,-1.437,755.527,-10.820,0.000,0.097,38.954,-0.006,0.001,-0.117,0.004,-0.118,0.001,0.198,0.024,-89.255,0.014,0.000,-0.659,0.000,-0.011,0.000,-0.001,-0.001,0.000,-1.050,-0.033,0.242,0.000,1,1,1,1,0.001,0.004,0.037,0.216,0.005,0.005,0.001,0.001,0.216,0.005,0.000,0
20260703_204435,case01_baseline_boxes,6,294.5,1.000,29.263,410.808,-1.437,755.536,-10.794,0.000,0.084,38.861,0.259,0.000,-0.132,-0.260,-0.129,0.001,0.199,0.024,-89.319,0.019,-0.001,-0.639,0.000,-0.010,0.000,-0.001,0.006,-0.002,-0.979,-0.033,0.238,0.000,1,1,1,1,-0.002,-0.004,0.029,-0.178,0.003,0.003,0.001,0.001,0.178,0.003,0.000,0
20260703_204435,case01_baseline_boxes,6,294.5,1.000,29.375,409.600,-1.437,755.545,-10.821,0.000,0.071,38.958,-0.270,0.001,-0.128,0.268,-0.131,0.001,0.202,0.024,-89.388,0.026,0.000,-0.694,0.000,-0.011,0.000,0.000,-0.009,0.002,-0.993,-0.033,0.242,0.000,1,1,1,1,0.001,0.004,0.037,0.216,0.004,0.004,0.001,0.001,0.216,0.004,0.000,0
20260703_204435,case01_baseline_boxes,6,294.5,1.000,29.475,408.518,-1.437,755.551,-10.822,0.000,0.059,38.959,-0.004,0.000,-0.119,0.003,-0.119,0.001,0.205,0.024,-89.451,0.026,0.000,-0.628,0.000,-0.011,0.000,0.000,-0.001,0.000,-0.993,-0.033,0.242,0.000,1,1,1,1,0.001,0.004,0.037,0.215,0.004,0.004,0.001,0.001,0.215,0.004,0.000,0
20260703_204435,case01_baseline_boxes,6,294.5,1.000,29.587,407.306,-1.437,755.557,-10.796,0.000,0.045,38.866,0.259,0.000,-0.138,-0.260,-0.136,0.000,0.208,0.024,-89.522,0.031,0.000,-0.708,-0.001,-0.011,0.000,-0.001,0.006,-0.002,-1.010,-0.034,0.238,0.000,1,1,1,1,-0.002,-0.004,0.029,-0.177,0.003,0.003,0.001,0.001,0.177,0.003,0.000,0
20260703_204435,case01_baseline_boxes,6,294.5,1.000,29.695,406.141,-1.437,755.561,-10.823,0.000,0.032,38.962,-0.267,0.000,-0.134,0.266,-0.136,0.001,0.211,0.024,-89.591,0.032,0.001,-0.690,-0.001,-0.012,0.000,0.000,-0.009,0.002,-1.029,-0.035,0.241,0.000,1,1,1,1,0.001,0.004,0.037,0.215,0.004,0.004,0.001,0.001,0.215,0.004,0.000,0
20260703_204435,case01_baseline_boxes,6,294.5,1.000,29.799,405.014,-1.437,755.564,-10.823,0.000,0.019,38.963,-0.003,0.000,-0.127,0.002,-0.127,0.001,0.214,0.024,-89.659,0.031,0.001,-0.676,-0.001,-0.012,0.000,0.000,-0.001,0.000,-1.030,-0.035,0.241,0.000,1,1,1,1,0.001,0.004,0.037,0.214,0.004,0.004,0.001,0.001,0.214,0.004,0.000,0
20260703_204435,case01_baseline_boxes,6,294.5,1.000,29.903,403.888,-1.437,755.565,-10.797,0.000,0.005,38.870,0.258,0.000,-0.142,-0.259,-0.141,0.000,0.217,0.024,-89.727,0.030,0.000,-0.680,-0.001,-0.011,0.000,0.000,0.006,-0.002,-1.048,-0.035,0.237,0.000,1,1,1,1,-0.002,-0.004,0.029,-0.176,0.004,0.004,0.001,0.001,0.176,0.004,0.000,0
20260703_204435,case01_baseline_boxes,6,294.5,1.000,30.011,402.725,-1.437,755.565,-10.824,0.000,-0.009,38.965,-0.264,0.000,-0.139,0.263,-0.140,0.001,0.220,0.024,-89.798,0.031,-0.001,-0.711,0.000,-0.012,0.000,0.001,-0.008,0.002,-1.070,-0.036,0.241,0.000,1,1,1,1,0.001,0.004,0.037,0.214,0.004,0.004,0.001,0.001,0.214,0.004,0.000,0
20260703_204435,case01_baseline_boxes,6,294.5,1.000,30.115,401.599,-1.437,755.563,-10.824,0.000,-0.022,38.966,-0.002,0.000,-0.132,0.002,-0.132,0.000,0.223,0.024,-89.867,0.028,0.000,-0.698,0.000,-0.012,0.000,0.000,-0.001,0.000,-1.073,-0.036,0.241,0.000,1,1,1,1,0.001,0.004,0.037,0.213,0.004,0.004,0.001,0.001,0.213,0.004,0.000,0
20260703_204435,case01_baseline_boxes,6,294.5,1.000,30.219,400.477,-1.437,755.560,-10.824,0.000,-0.036,38.967,-0.002,0.000,-0.134,0.002,-0.134,0.000,0.226,0.024,-89.938,0.025,0.000,-0.705,0.000,-0.012,0.000,0.000,-0.001,0.000,-1.078,-0.036,0.241,0.000,1,1,1,1,0.001,0.004,0.037,0.213,0.004,0.004,0.001,0.001,0.213,0.004,0.000,0
20260703_204435,case01_baseline_boxes,6,294.5,1.000,30.319,399.395,-1.437,755.556,-10.824,0.000,-0.049,38.967,-0.001,0.000,-0.134,0.001,-0.134,0.000,0.228,0.024,-90.007,0.022,0.000,-0.686,0.000,-0.012,0.000,0.000,-0.001,0.000,-1.082,-0.036,0.241,0.000,1,1,1,1,0.001,0.004,0.037,0.213,0.004,0.004,0.001,0.001,0.213,0.004,0.000,0
20260703_204435,case01_baseline_boxes,6,294.5,1.000,30.423,398.269,-1.437,755.550,-10.798,0.000,-0.064,38.875,0.258,-0.001,-0.152,-0.258,-0.153,0.000,0.230,0.024,-90.079,0.020,0.000,-0.723,0.000,-0.012,0.000,0.000,0.005,-0.002,-1.108,-0.037,0.237,0.000,1,1,1,1,-0.002,-0.004,0.029,-0.175,0.004,0.004,0.001,0.001,0.175,0.004,0.000,0
20260703_204435,case01_baseline_boxes,6,294.5,1.000,30.527,397.143,-1.437,755.542,-10.798,0.000,-0.078,38.875,-0.001,0.000,-0.139,0.001,-0.139,0.000,0.231,0.024,-90.152,0.017,0.000,-0.732,0.000,-0.012,0.000,0.000,-0.001,0.000,-1.115,-0.037,0.237,0.000,1,1,1,1,-0.002,-0.004,0.029,-0.175,0.004,0.004,0.001,0.001,0.175,0.004,0.000,0
20260703_204435,case01_baseline_boxes,6,294.5,1.000,30.635,395.977,-1.437,755.533,-10.824,0.000,-0.094,38.969,-0.260,0.000,-0.155,0.260,-0.154,0.001,0.233,0.024,-90.229,0.014,0.000,-0.769,0.000,-0.013,0.000,0.001,-0.009,0.002,-1.142,-0.038,0.241,0.000,1,1,1,1,0.001,0.004,0.037,0.212,0.005,0.005,0.001,0.001,0.212,0.005,0.000,0
20260703_204435,case01_baseline_boxes,6,294.5,1.000,30.739,394.849,-1.437,755.523,-10.824,0.000,-0.108,38.970,0.000,0.000,-0.145,0.001,-0.145,0.000,0.234,0.024,-90.305,0.009,0.000,-0.757,0.000,-0.013,0.000,0.001,-0.002,0.000,-1.150,-0.039,0.241,0.000,1,1,1,1,0.001,0.004,0.037,0.212,0.004,0.004,0.001,0.001,0.212,0.004,0.000,0
20260703_204435,case01_baseline_boxes,6,294.5,1.000,30.847,393.687,-1.437,755.510,-10.798,0.000,-0.124,38.877,0.259,-0.001,-0.158,-0.258,-0.159,0.000,0.234,0.024,-90.384,0.007,0.000,-0.789,0.000,-0.013,0.000,0.000,0.006,-0.002,-1.177,-0.040,0.237,0.000,1,1,1,1,-0.002,-0.004,0.029,-0.174,0.004,0.004,0.001,0.001,0.174,0.004,0.000,0
20260703_204435,case01_baseline_boxes,6,294.5,1.000,30.951,392.563,-1.437,755.496,-10.824,0.000,-0.140,38.971,-0.258,0.000,-0.161,0.259,-0.159,0.001,0.235,0.024,-90.461,0.003,0.000,-0.773,0.000,-0.013,0.000,0.001,-0.009,0.002,-1.207,-0.041,0.240,0.000,1,1,1,1,0.001,0.004,0.037,0.212,0.005,0.005,0.001,0.001,0.212,0.005,0.000,0
20260703_204435,case01_baseline_boxes,6,294.5,1.000,31.051,391.481,-1.437,755.482,-10.824,0.000,-0.155,38.971,0.001,0.000,-0.152,0.000,-0.152,0.000,0.235,0.024,-90.536,0.001,0.000,-0.755,0.000,-0.014,0.000,0.000,-0.002,0.000,-1.217,-0.041,0.240,0.000,1,1,1,1,0.001,0.004,0.037,0.212,0.005,0.005,0.001,0.001,0.212,0.005,0.000,0
20260703_204435,case01_baseline_boxes,6,294.5,1.000,31.159,390.315,-1.437,755.464,-10.824,0.000,-0.170,38.971,0.002,0.000,-0.152,0.000,-0.152,0.000,0.235,0.024,-90.619,-0.002,0.000,-0.829,0.000,-0.014,0.000,0.000,-0.002,0.000,-1.230,-0.041,0.240,0.000,1,1,1,1,0.001,0.004,0.037,0.212,0.005,0.005,0.001,0.001,0.212,0.005,0.000,0
20260703_204435,case01_baseline_boxes,6,294.5,1.000,31.259,389.228,-1.437,755.446,-10.824,0.000,-0.186,38.971,0.002,0.000,-0.153,0.000,-0.153,0.000,0.234,0.024,-90.697,-0.003,0.000,-0.782,0.000,-0.014,0.000,0.000,-0.002,0.000,-1.241,-0.042,0.240,0.000,1,1,1,1,0.001,0.004,0.037,0.212,0.005,0.005,0.001,0.001,0.212,0.005,0.000,0
20260703_204435,case01_baseline_boxes,6,294.5,1.000,31.367,388.066,-1.437,755.425,-10.798,0.000,-0.202,38.878,0.261,0.000,-0.167,-0.259,-0.171,0.000,0.234,0.024,-90.782,-0.006,-0.001,-0.846,0.000,-0.013,0.000,0.000,0.005,-0.002,-1.274,-0.043,0.236,0.000,1,1,1,1,-0.002,-0.004,0.029,-0.174,0.005,0.005,0.002,0.002,0.174,0.005,0.000,0
20260703_204435,case01_baseline_boxes,6,294.5,1.000,31.471,386.937,-1.437,755.403,-10.823,0.000,-0.220,38.972,-0.256,0.000,-0.175,0.258,-0.171,0.001,0.233,0.024,-90.865,-0.007,0.000,-0.832,0.000,-0.014,0.000,0.000,-0.009,0.002,-1.310,-0.044,0.240,0.000,1,1,1,1,0.001,0.004,0.037,0.212,0.006,0.006,0.001,0.001,0.212,0.006,0.000,0
20260703_204435,case01_baseline_boxes,6,294.5,1.000,31.579,385.772,-1.437,755.379,-10.823,0.000,-0.236,38.972,0.003,0.000,-0.158,-0.001,-0.158,0.001,0.232,0.024,-90.952,-0.008,0.000,-0.871,0.000,-0.015,0.000,0.000,-0.002,0.000,-1.324,-0.045,0.240,0.000,1,1,1,1,0.001,0.004,0.037,0.212,0.006,0.006,0.001,0.001,0.212,0.006,0.000,0
20260703_204435,case01_baseline_boxes,6,294.5,1.000,31.679,384.690,-1.437,755.354,-10.822,0.000,-0.252,38.971,0.004,0.000,-0.161,-0.001,-0.161,0.001,0.232,0.024,-91.034,-0.007,0.000,-0.818,0.000,-0.015,0.000,0.000,-0.002,0.000,-1.343,-0.045,0.240,0.000,1,1,1,1,0.001,0.004,0.037,0.212,0.006,0.006,0.001,0.001,0.212,0.006,0.000,0
20260703_204435,case01_baseline_boxes,6,294.5,1.000,31.787,383.527,-1.437,755.326,-10.796,0.000,-0.270,38.878,0.264,0.000,-0.181,-0.260,-0.186,0.001,0.231,0.024,-91.123,-0.008,0.000,-0.893,0.000,-0.014,0.000,0.000,0.004,-0.002,-1.387,-0.047,0.236,0.000,1,1,1,1,-0.002,-0.004,0.029,-0.175,0.006,0.006,0.002,0.002,0.175,0.006,0.000,0
20260703_204435,case01_baseline_boxes,6,294.5,1.000,31.891,382.399,-1.437,755.297,-10.821,0.000,-0.289,38.971,-0.254,0.000,-0.194,0.258,-0.188,0.001,0.230,0.024,-91.212,-0.006,-0.001,-0.886,0.000,-0.015,0.000,0.000,-0.011,0.002,-1.432,-0.044,0.240,0.000,1,1,1,1,0.001,0.004,0.037,0.212,0.007,0.007,0.001,0.001,0.212,0.007,0.000,0
20260703_204435,case01_baseline_boxes,6,294.5,1.000,31.991,381.318,-1.437,755.267,-10.821,0.000,-0.306,38.971,0.005,0.000,-0.168,-0.002,-0.168,0.001,0.230,0.024,-91.299,-0.006,0.000,-0.866,0.000,-0.016,0.000,0.000,-0.002,0.000,-1.339,-0.045,0.240,0.000,1,1,1,1,0.001,0.004,0.037,0.212,0.005,0.005,0.001,0.001,0.212,0.005,0.000,0
20260703_204435,case01_baseline_boxes,6,294.5,1.000,32.095,380.191,-1.437,755.234,-10.820,0.000,-0.323,38.971,0.006,0.000,-0.168,-0.002,-0.169,0.001,0.229,0.024,-91.390,-0.004,0.000,-0.912,0.000,-0.016,0.000,0.000,-0.001,0.000,-1.357,-0.046,0.240,0.000,1,1,1,1,0.001,0.004,0.037,0.212,0.005,0.005,0.001,0.001,0.212,0.005,0.000,0
20260703_204435,case01_baseline_boxes,6,294.5,1.000,32.203,379.028,-1.437,755.199,-10.794,0.000,-0.341,38.877,0.266,0.000,-0.184,-0.261,-0.191,0.001,0.229,0.024,-91.485,-0.003,0.000,-0.952,0.000,-0.015,0.000,0.000,0.005,-0.002,-1.401,-0.047,0.236,0.000,1,1,1,1,-0.002,-0.004,0.029,-0.175,0.005,0.005,0.002,0.002,0.175,0.005,0.000,0
20260703_204435,case01_baseline_boxes,6,294.5,1.000,32.303,377.944,-1.437,755.164,-10.793,0.000,-0.359,38.877,0.007,0.000,-0.177,-0.002,-0.177,0.001,0.229,0.024,-91.575,-0.002,0.000,-0.900,0.000,-0.015,0.000,0.000,-0.002,0.000,-1.423,-0.048,0.236,0.000,1,1,1,1,-0.002,-0.004,0.029,-0.175,0.005,0.005,0.002,0.002,0.175,0.005,0.000,0
20260703_204435,case01_baseline_boxes,6,294.5,1.000,32.411,376.779,-1.437,755.124,-10.818,0.000,-0.380,38.970,-0.251,0.000,-0.206,0.257,-0.198,0.001,0.229,0.024,-91.673,0.000,-0.001,-0.981,0.000,-0.016,0.000,0.000,-0.010,0.002,-1.473,-0.050,0.240,0.000,1,1,1,1,0.001,0.004,0.036,0.212,0.006,0.006,0.002,0.001,0.212,0.006,0.000,0
20260703_204435,case01_baseline_boxes,6,294.5,1.000,32.523,375.567,-1.437,755.080,-10.791,0.000,-0.399,38.876,0.268,0.000,-0.197,-0.262,-0.205,0.001,0.229,0.024,-91.777,0.003,0.000,-1.042,0.000,-0.016,0.000,0.000,0.004,-0.002,-1.523,-0.051,0.236,0.000,1,1,1,1,-0.002,-0.004,0.029,-0.175,0.006,0.006,0.002,0.002,0.175,0.006,0.000,0
20260703_204435,case01_baseline_boxes,6,294.5,1.000,32.635,374.356,-1.437,755.034,-10.816,0.000,-0.419,38.968,-0.250,0.000,-0.201,0.257,-0.193,0.001,0.230,0.024,-91.883,0.005,0.000,-1.057,0.000,-0.017,0.000,0.000,-0.008,0.002,-1.467,-0.046,0.240,0.000,1,1,1,1,0.001,0.004,0.036,0.212,0.006,0.006,0.002,0.002,0.212,0.006,0.000,0
20260703_204435,case01_baseline_boxes,6,294.5,1.000,32.743,373.193,-1.437,754.988,-10.790,0.000,-0.437,38.875,0.268,0.000,-0.173,-0.262,-0.182,0.001,0.230,0.024,-91.983,0.006,0.000,-1.004,0.000,-0.016,0.000,0.000,0.009,-0.002,-1.427,-0.048,0.236,0.000,1,1,1,1,-0.002,-0.004,0.029,-0.175,0.005,0.005,0.002,0.002,0.175,0.005,0.000,0
20260703_204435,case01_baseline_boxes,6,294.5,1.000,32.847,372.065,-1.437,754.942,-10.789,0.000,-0.455,38.874,0.009,0.000,-0.181,-0.003,-0.181,0.001,0.231,0.024,-92.081,0.006,-0.001,-0.973,0.000,-0.016,0.000,0.000,-0.001,0.000,-1.472,-0.050,0.236,0.000,1,1,1,1,-0.002,-0.004,0.029,-0.175,0.005,0.005,0.002,0.002,0.175,0.005,0.000,0
20260703_204435,case01_baseline_boxes,6,294.5,1.000,32.955,370.905,-1.437,754.892,-10.814,0.000,-0.477,38.966,-0.248,0.000,-0.221,0.256,-0.211,0.001,0.231,0.024,-92.182,0.008,0.000,-1.017,0.000,-0.017,0.000,0.000,-0.011,0.002,-1.547,-0.052,0.239,0.000,1,1,1,1,0.001,0.004,0.036,0.212,0.007,0.007,0.002,0.002,0.212,0.007,0.000,0
20260703_204435,case01_baseline_boxes,6,294.5,1.000,33.083,369.518,-1.437,754.829,-10.786,0.000,-0.502,38.872,0.273,0.000,-0.250,-0.263,-0.260,0.001,0.233,0.024,-92.307,0.011,0.000,-1.250,0.000,-0.017,0.000,0.000,0.002,-0.002,-1.571,-0.053,0.236,0.000,1,1,1,1,-0.002,-0.004,0.029,-0.174,0.006,0.006,0.002,0.002,0.174,0.006,0.000,0
20260703_204435,case01_baseline_boxes,6,294.5,1.000,33.195,368.309,-1.437,754.771,-10.811,0.000,-0.526,38.964,-0.245,0.000,-0.238,0.255,-0.228,0.002,0.234,0.024,-92.420,0.011,0.000,-1.123,0.000,-0.018,0.000,0.000,-0.013,0.002,-1.650,-0.056,0.239,0.000,1,1,1,1,0.001,0.004,0.036,0.212,0.007,0.007,0.002,0.002,0.212,0.007,0.000,0
20260703_204435,case01_baseline_boxes,6,294.5,1.000,33.303,367.147,-1.437,754.714,-10.783,0.000,-0.548,38.871,0.272,0.000,-0.225,-0.262,-0.236,0.001,0.235,0.024,-92.531,0.013,0.001,-1.113,0.000,-0.018,0.000,0.000,0.002,-0.002,-1.731,-0.054,0.235,0.000,1,1,1,1,-0.002,-0.004,0.029,-0.174,0.007,0.007,0.002,0.002,0.174,0.007,0.000,0
20260703_204435,case01_baseline_boxes,6,294.5,1.000,33.403,366.066,-1.437,754.658,-10.782,0.000,-0.570,38.870,0.014,0.000,-0.217,-0.004,-0.217,0.001,0.236,0.024,-92.637,0.013,0.000,-1.063,0.000,-0.018,0.000,0.000,-0.005,0.000,-1.780,-0.056,0.235,0.000,1,1,1,1,-0.002,-0.004,0.029,-0.174,0.008,0.008,0.002,0.002,0.174,0.008,0.000,0
20260703_204435,case01_baseline_boxes,6,294.5,1.000,33.507,364.941,-1.437,754.597,-10.781,0.000,-0.592,38.869,0.014,0.000,-0.217,-0.004,-0.218,0.001,0.238,0.024,-92.751,0.015,0.000,-1.134,0.000,-0.019,0.000,0.000,-0.004,0.000,-1.706,-0.057,0.235,0.000,1,1,1,1,-0.002,-0.004,0.029,-0.174,0.006,0.006,0.002,0.002,0.174,0.006,0.000,0
20260703_204435,case01_baseline_boxes,6,294.5,1.000,33.619,363.732,-1.437,754.529,-10.805,0.000,-0.618,38.960,-0.240,0.000,-0.260,0.253,-0.248,0.001,0.239,0.024,-92.876,0.017,0.000,-1.252,0.000,-0.020,0.000,0.000,-0.012,0.002,-1.779,-0.060,0.239,0.000,1,1,1,1,0.001,0.004,0.036,0.211,0.007,0.007,0.002,0.002,0.211,0.007,0.000,0
20260703_204435,case01_baseline_boxes,6,294.5,1.000,33.727,362.570,-1.437,754.461,-10.777,0.000,-0.641,38.866,0.275,0.000,-0.238,-0.262,-0.252,0.001,0.241,0.024,-92.999,0.017,0.000,-1.230,0.000,-0.020,0.000,0.000,0.003,-0.002,-1.859,-0.063,0.235,0.000,1,1,1,1,-0.002,-0.004,0.029,-0.173,0.007,0.008,0.002,0.002,0.173,0.008,0.000,0
20260703_204435,case01_baseline_boxes,6,294.5,1.000,33.831,361.444,-1.437,754.393,-10.801,0.000,-0.669,38.958,-0.237,0.000,-0.271,0.252,-0.257,0.001,0.243,0.024,-93.121,0.017,0.000,-1.220,0.000,-0.021,0.000,0.000,-0.012,0.002,-1.807,-0.061,0.239,0.000,1,1,1,1,0.001,0.003,0.036,0.210,0.006,0.007,0.002,0.002,0.210,0.007,0.000,0
20260703_204435,case01_baseline_boxes,6,294.5,1.000,33.939,360.284,-1.437,754.320,-10.799,0.000,-0.692,38.956,0.019,0.000,-0.238,-0.005,-0.239,0.001,0.245,0.024,-93.249,0.018,0.000,-1.285,0.000,-0.021,0.000,0.000,-0.004,0.000,-1.850,-0.062,0.239,0.000,1,1,1,1,0.001,0.003,0.036,0.210,0.007,0.007,0.002,0.002,0.210,0.007,0.000,0
20260703_204435,case01_baseline_boxes,6,294.5,1.000,34.039,359.205,-1.437,754.250,-10.797,0.000,-0.716,38.955,0.019,0.000,-0.238,-0.005,-0.239,0.001,0.246,0.024,-93.371,0.017,0.000,-1.215,0.000,-0.022,0.000,0.000,-0.003,0.000,-1.897,-0.064,0.239,0.000,1,1,1,1,0.001,0.003,0.036,0.210,0.007,0.007,0.002,0.002,0.210,0.007,0.000,0
20260703_204435,case01_baseline_boxes,6,294.5,1.000,34.139,358.127,-1.437,754.177,-10.795,0.000,-0.741,38.953,0.020,0.000,-0.244,-0.006,-0.245,0.001,0.248,0.024,-93.494,0.016,0.000,-1.236,0.000,-0.022,0.000,0.000,-0.004,0.000,-1.945,-0.065,0.239,0.000,1,1,1,1,0.001,0.003,0.036,0.210,0.008,0.008,0.002,0.002,0.210,0.008,0.000,0
20260703_204435,case01_baseline_boxes,6,294.5,1.000,34.239,357.049,-1.437,754.101,-10.793,0.000,-0.765,38.952,0.021,0.000,-0.246,-0.006,-0.247,0.001,0.250,0.024,-93.620,0.016,0.000,-1.255,0.000,-0.022,0.000,0.000,-0.003,0.000,-1.995,-0.067,0.239,0.000,1,1,1,1,0.001,0.003,0.036,0.210,0.008,0.008,0.002,0.002,0.210,0.008,0.000,0
20260703_204435,case01_baseline_boxes,6,294.5,1.000,34.339,355.967,-1.437,754.023,-10.791,0.000,-0.791,38.950,0.023,0.000,-0.254,-0.006,-0.255,0.001,0.251,0.024,-93.748,0.016,0.000,-1.278,0.000,-0.023,0.000,0.000,-0.004,0.000,-2.050,-0.064,0.239,0.000,1,1,1,1,0.001,0.003,0.036,0.210,0.008,0.009,0.002,0.002,0.210,0.009,0.000,0
20260703_204435,case01_baseline_boxes,6,294.5,1.000,34.440,354.883,-1.437,753.942,-10.788,0.000,-0.816,38.949,0.023,0.000,-0.252,-0.006,-0.253,0.001,0.253,0.024,-93.878,0.016,0.000,-1.302,0.000,-0.023,0.000,0.000,-0.003,0.000,-1.966,-0.066,0.239,0.000,1,1,1,1,0.001,0.003,0.036,0.209,0.007,0.007,0.002,0.002,0.209,0.007,0.000,0
20260703_204435,case01_baseline_boxes,6,294.5,1.000,34.547,353.730,-1.437,753.854,-10.760,0.000,-0.842,38.855,0.281,0.000,-0.265,-0.262,-0.285,0.001,0.254,0.024,-94.018,0.016,-0.001,-1.403,0.000,-0.023,0.000,0.000,0.004,-0.002,-2.057,-0.069,0.235,0.000,1,1,1,1,-0.002,-0.004,0.029,-0.172,0.007,0.008,0.003,0.003,0.172,0.008,0.000,0
20260703_204435,case01_baseline_boxes,6,294.5,1.000,34.651,352.610,-1.437,753.764,-10.783,0.000,-0.874,38.945,-0.226,0.000,-0.313,0.248,-0.296,0.002,0.256,0.024,-94.157,0.014,0.000,-1.388,0.000,-0.024,0.000,0.000,-0.012,0.002,-2.156,-0.068,0.239,0.000,1,1,1,1,0.001,0.003,0.036,0.209,0.009,0.009,0.003,0.003,0.209,0.009,0.000,0
20260703_204435,case01_baseline_boxes,6,294.5,1.000,34.751,351.533,-1.437,753.676,-10.780,0.000,-0.901,38.943,0.027,0.000,-0.269,-0.007,-0.270,0.001,0.257,0.024,-94.293,0.013,0.000,-1.360,0.000,-0.024,0.000,0.000,-0.004,0.000,-2.078,-0.070,0.239,0.000,1,1,1,1,0.001,0.003,0.036,0.209,0.007,0.007,0.003,0.003,0.209,0.007,0.000,0
20260703_204435,case01_baseline_boxes,6,294.5,1.000,34.855,350.411,-1.437,753.581,-10.777,0.000,-0.928,38.942,0.028,0.000,-0.273,-0.007,-0.275,0.001,0.258,0.024,-94.437,0.013,0.000,-1.444,0.000,-0.025,0.000,0.000,-0.004,0.000,-2.144,-0.072,0.239,0.000,1,1,1,1,0.001,0.003,0.036,0.209,0.008,0.008,0.003,0.003,0.209,0.008,0.000,0
20260703_204435,case01_baseline_boxes,6,294.5,1.000,34.963,349.250,-1.437,753.479,-10.749,0.000,-0.957,38.848,0.286,0.000,-0.291,-0.262,-0.313,0.001,0.260,0.024,-94.590,0.013,0.000,-1.521,0.000,-0.025,0.000,0.000,0.002,-0.002,-2.252,-0.076,0.235,0.000,1,1,1,1,-0.002,-0.004,0.029,-0.172,0.009,0.009,0.003,0.003,0.172,0.009,0.000,0
20260703_204435,case01_baseline_boxes,6,294.5,1.000,35.063,348.174,-1.437,753.382,-10.745,0.000,-0.985,38.846,0.031,0.000,-0.283,-0.007,-0.284,0.001,0.261,0.024,-94.733,0.011,0.000,-1.438,0.000,-0.025,0.000,0.000,-0.004,0.000,-2.180,-0.073,0.235,0.000,1,1,1,1,-0.002,-0.004,0.029,-0.171,0.007,0.007,0.003,0.003,0.171,0.007,0.000,0
20260703_204435,case01_baseline_boxes,6,294.5,1.000,35.163,347.094,-1.437,753.282,-10.742,0.000,-1.014,38.844,0.032,0.000,-0.284,-0.008,-0.286,0.001,0.262,0.024,-94.880,0.012,0.000,-1.466,0.000,-0.025,0.000,0.000,-0.003,0.000,-2.261,-0.071,0.235,0.000,1,1,1,1,-0.002,-0.003,0.029,-0.171,0.008,0.008,0.003,0.003,0.171,0.008,0.000,0
20260703_204435,case01_baseline_boxes,6,294.5,1.000,35.271,345.938,-1.437,753.171,-10.764,0.000,-1.045,38.933,-0.219,0.000,-0.314,0.246,-0.294,0.002,0.263,0.024,-95.037,0.010,-0.001,-1.574,0.000,-0.026,0.000,0.000,-0.006,0.002,-2.246,-0.076,0.238,0.000,1,1,1,1,0.001,0.003,0.036,0.209,0.008,0.009,0.003,0.003,0.209,0.009,0.000,0
20260703_204435,case01_baseline_boxes,6,294.5,1.000,35.371,344.861,-1.437,753.065,-10.761,0.000,-1.073,38.931,0.034,0.000,-0.283,-0.008,-0.285,0.001,0.264,0.024,-95.184,0.009,0.000,-1.470,0.000,-0.026,0.000,0.000,-0.002,0.000,-2.220,-0.075,0.238,0.000,1,1,1,1,0.001,0.003,0.036,0.209,0.008,0.008,0.003,0.003,0.209,0.008,0.000,0
20260703_204435,case01_baseline_boxes,6,294.5,1.000,35.483,343.654,-1.437,752.943,-10.732,0.000,-1.104,38.837,0.293,-0.001,-0.308,-0.263,-0.334,0.001,0.265,0.024,-95.352,0.008,0.000,-1.673,0.000,-0.026,0.000,0.000,0.001,-0.002,-2.365,-0.080,0.235,0.000,1,1,1,1,-0.002,-0.004,0.029,-0.171,0.009,0.009,0.003,0.003,0.171,0.009,0.000,0
20260703_204435,case01_baseline_boxes,6,294.5,1.000,35.591,342.494,-1.437,752.822,-10.752,0.000,-1.141,38.926,-0.209,0.000,-0.368,0.244,-0.347,0.002,0.265,0.024,-95.516,0.008,-0.001,-1.647,0.000,-0.027,0.000,0.000,-0.015,0.002,-2.385,-0.080,0.238,0.000,1,1,1,1,0.001,0.003,0.036,0.208,0.009,0.009,0.003,0.003,0.208,0.009,0.000,0
20260703_204435,case01_baseline_boxes,6,294.5,1.000,35.691,341.420,-1.437,752.706,-10.748,0.000,-1.174,38.924,0.042,0.000,-0.326,-0.010,-0.328,0.002,0.266,0.024,-95.673,0.009,0.000,-1.571,0.000,-0.028,0.000,0.000,-0.008,0.000,-2.509,-0.084,0.238,0.000,1,1,1,1,0.001,0.003,0.036,0.208,0.010,0.010,0.003,0.003,0.208,0.010,0.000,0
20260703_204435,case01_baseline_boxes,6,294.5,1.000,35.799,340.264,-1.437,752.578,-10.744,0.000,-1.207,38.921,0.045,0.000,-0.337,-0.010,-0.340,0.002,0.267,0.024,-95.848,0.010,0.001,-1.749,0.000,-0.029,0.000,0.000,-0.009,0.000,-2.637,-0.089,0.238,0.000,1,1,1,1,0.001,0.003,0.036,0.208,0.011,0.011,0.003,0.003,0.208,0.011,0.000,0
20260703_204435,case01_baseline_boxes,6,294.5,1.000,35.899,339.190,-1.437,752.456,-10.739,0.000,-1.242,38.918,0.047,0.000,-0.347,-0.011,-0.350,0.002,0.268,0.024,-96.016,0.011,0.001,-1.678,0.000,-0.030,0.000,0.000,-0.009,0.000,-2.607,-0.088,0.238,0.000,1,1,1,1,0.001,0.003,0.036,0.208,0.009,0.010,0.003,0.003,0.208,0.010,0.000,0
20260703_204435,case01_baseline_boxes,6,294.5,1.000,36.007,338.035,-1.437,752.320,-10.708,0.000,-1.278,38.824,0.306,0.000,-0.363,-0.265,-0.394,0.002,0.270,0.024,-96.202,0.013,0.000,-1.861,0.000,-0.030,0.000,0.000,-0.003,-0.002,-2.779,-0.094,0.234,0.000,1,1,1,1,-0.002,-0.004,0.029,-0.171,0.011,0.011,0.004,0.004,0.171,0.011,0.000,0
20260703_204435,case01_baseline_boxes,6,294.5,1.000,36.107,336.962,-1.437,752.190,-10.703,0.000,-1.314,38.821,0.052,0.000,-0.359,-0.011,-0.363,0.002,0.271,0.024,-96.381,0.014,0.000,-1.784,0.000,-0.031,0.000,0.000,-0.008,0.000,-2.739,-0.092,0.234,0.000,1,1,1,1,-0.002,-0.004,0.029,-0.170,0.009,0.010,0.004,0.004,0.170,0.010,0.000,0
20260703_204435,case01_baseline_boxes,6,294.5,1.000,36.215,335.806,-1.437,752.046,-10.722,0.000,-1.358,38.908,-0.190,0.000,-0.438,0.239,-0.413,0.002,0.273,0.024,-96.578,0.017,0.000,-1.978,0.000,-0.033,0.000,0.000,-0.017,0.002,-2.920,-0.098,0.238,0.000,1,1,1,1,0.001,0.003,0.036,0.207,0.011,0.012,0.004,0.004,0.207,0.012,0.000,0
20260703_204435,case01_baseline_boxes,6,294.5,1.000,36.319,334.687,-1.436,751.902,-10.716,0.000,-1.396,38.905,0.057,0.000,-0.377,-0.013,-0.381,0.002,0.275,0.024,-96.775,0.019,0.000,-1.970,0.000,-0.034,0.000,0.000,-0.008,0.000,-2.880,-0.097,0.238,0.000,1,1,1,1,0.001,0.003,0.036,0.207,0.010,0.010,0.004,0.004,0.207,0.010,0.000,0
20260703_204435,case01_baseline_boxes,6,294.5,1.000,36.423,333.580,-1.436,751.755,-10.685,0.000,-1.436,38.811,0.317,0.000,-0.401,-0.266,-0.437,0.002,0.277,0.024,-96.976,0.020,0.000,-2.001,0.000,-0.034,0.000,0.000,-0.003,-0.002,-3.064,-0.103,0.234,0.000,1,1,1,1,-0.002,-0.004,0.029,-0.170,0.011,0.012,0.004,0.004,0.170,0.012,0.000,0
20260703_204435,case01_baseline_boxes,6,294.5,1.000,36.527,332.467,-1.436,751.604,-10.678,0.000,-1.475,38.807,0.063,0.000,-0.395,-0.014,-0.399,0.002,0.279,0.024,-97.182,0.023,0.000,-2.066,0.000,-0.035,0.000,0.000,-0.008,0.000,-3.025,-0.102,0.234,0.000,1,1,1,1,-0.002,-0.004,0.029,-0.170,0.010,0.010,0.004,0.004,0.170,0.010,0.000,0
20260703_204435,case01_baseline_boxes,6,294.5,1.000,36.627,331.397,-1.436,751.454,-10.672,0.000,-1.515,38.804,0.066,0.000,-0.399,-0.014,-0.404,0.002,0.281,0.024,-97.385,0.024,0.000,-2.032,0.000,-0.035,0.000,0.000,-0.007,0.000,-3.168,-0.107,0.234,0.000,1,1,1,1,-0.002,-0.003,0.029,-0.169,0.011,0.012,0.005,0.005,0.169,0.012,0.000,0
20260703_204435,case01_baseline_boxes,6,294.5,1.000,36.739,330.202,-1.436,751.281,-10.689,0.000,-1.564,38.890,-0.171,0.000,-0.487,0.234,-0.460,0.003,0.284,0.024,-97.617,0.028,0.000,-2.321,0.000,-0.037,0.000,0.000,-0.016,0.002,-3.192,-0.107,0.238,0.000,1,1,1,1,0.001,0.003,0.036,0.206,0.011,0.012,0.004,0.004,0.206,0.012,0.000,0
20260703_204435,case01_baseline_boxes,6,294.5,1.000,36.847,329.046,-1.436,751.109,-10.656,0.000,-1.608,38.795,0.331,0.000,-0.443,-0.267,-0.484,0.002,0.287,0.024,-97.848,0.030,-0.001,-2.310,0.000,-0.037,0.000,0.000,-0.004,-0.002,-3.410,-0.103,0.234,0.000,1,1,1,1,-0.002,-0.003,0.029,-0.169,0.013,0.014,0.005,0.005,0.169,0.014,0.000,0
20260703_204435,case01_baseline_boxes,6,294.5,1.000,36.955,327.898,-1.436,750.934,-10.673,0.000,-1.654,38.881,-0.172,0.000,-0.457,0.234,-0.428,0.002,0.290,0.024,-98.081,0.029,0.000,-2.322,0.000,-0.038,0.000,0.000,-0.006,0.002,-3.257,-0.109,0.238,0.000,1,1,1,1,0.001,0.003,0.036,0.205,0.011,0.012,0.005,0.005,0.205,0.012,0.000,0
20260703_204435,case01_baseline_boxes,6,294.5,1.000,37.055,326.830,-1.436,750.766,-10.665,0.000,-1.696,38.877,0.077,0.000,-0.420,-0.016,-0.427,0.002,0.293,0.024,-98.298,0.027,0.000,-2.174,0.000,-0.038,0.000,0.000,-0.005,0.000,-3.277,-0.110,0.238,0.000,1,1,1,1,0.001,0.003,0.036,0.205,0.011,0.012,0.005,0.005,0.205,0.012,0.000,0
20260703_204435,case01_baseline_boxes,6,294.5,1.000,37.183,325.465,-1.436,750.545,-10.630,0.000,-1.750,38.782,0.356,0.000,-0.545,-0.271,-0.592,0.003,0.296,0.024,-98.582,0.035,0.000,-2.843,0.000,-0.039,0.000,0.000,-0.005,-0.002,-3.472,-0.117,0.234,0.000,1,1,1,1,-0.002,-0.003,0.029,-0.168,0.012,0.013,0.005,0.005,0.168,0.013,0.000,0
20260703_204435,case01_baseline_boxes,6,294.5,1.000,37.283,324.401,-1.436,750.368,-10.621,0.000,-1.797,38.777,0.091,0.000,-0.468,-0.018,-0.476,0.003,0.299,0.024,-98.811,0.028,0.000,-2.290,0.000,-0.040,0.000,0.000,-0.012,0.000,-3.509,-0.118,0.234,0.000,1,1,1,1,-0.002,-0.003,0.029,-0.168,0.012,0.012,0.005,0.005,0.168,0.012,0.000,0
20260703_204435,case01_baseline_boxes,6,294.5,1.000,37.387,323.300,-1.436,750.179,-10.611,0.000,-1.845,38.773,0.096,0.000,-0.479,-0.019,-0.488,0.003,0.302,0.024,-99.055,0.030,0.000,-2.440,0.000,-0.041,0.000,0.000,-0.012,0.000,-3.736,-0.126,0.234,0.000,1,1,1,1,-0.002,-0.003,0.029,-0.167,0.014,0.015,0.005,0.005,0.167,0.015,0.000,0
20260703_204435,case01_baseline_boxes,6,294.5,1.000,37.487,322.236,-1.436,749.991,-10.601,0.000,-1.895,38.767,0.103,0.000,-0.501,-0.021,-0.512,0.003,0.305,0.024,-99.299,0.030,0.001,-2.438,-0.001,-0.043,0.000,0.000,-0.014,0.000,-3.782,-0.127,0.234,0.000,1,1,1,1,-0.002,-0.004,0.029,-0.167,0.013,0.014,0.006,0.005,0.167,0.014,0.000,0
20260703_204435,case01_baseline_boxes,6,294.5,1.000,37.587,321.173,-1.436,749.798,-10.590,0.000,-1.947,38.762,0.111,0.000,-0.522,-0.022,-0.533,0.003,0.308,0.024,-99.552,0.031,0.001,-2.523,-0.001,-0.044,0.000,0.000,-0.016,0.000,-4.027,-0.129,0.234,0.000,1,1,1,1,-0.002,-0.003,0.029,-0.167,0.015,0.016,0.006,0.006,0.167,0.016,0.000,0
20260703_204435,case01_baseline_boxes,6,294.5,1.000,37.691,320.077,-1.436,749.594,-10.601,0.000,-2.009,38.844,-0.117,0.000,-0.620,0.221,-0.591,0.004,0.311,0.024,-99.821,0.034,0.000,-2.694,-0.001,-0.047,0.000,0.000,-0.022,0.002,-4.144,-0.139,0.237,0.000,1,1,1,1,0.001,0.003,0.036,0.203,0.016,0.017,0.006,0.006,0.203,0.017,0.000,0
20260703_204435,case01_baseline_boxes,6,294.5,1.000,37.803,318.887,-1.436,749.365,-10.563,0.000,-2.066,38.748,0.379,0.000,-0.568,-0.273,-0.626,0.003,0.315,0.024,-100.125,0.039,0.001,-3.036,-0.001,-0.048,0.000,0.000,-0.011,-0.002,-4.260,-0.143,0.234,0.000,1,1,1,1,-0.002,-0.003,0.029,-0.166,0.015,0.016,0.006,0.006,0.166,0.016,0.000,0
20260703_204435,case01_baseline_boxes,6,294.5,1.000,37.907,317.792,-1.436,749.148,-10.550,0.000,-2.122,38.742,0.130,0.000,-0.563,-0.026,-0.578,0.003,0.319,0.024,-100.414,0.038,0.000,-2.897,-0.001,-0.049,0.000,0.000,-0.015,0.000,-4.309,-0.145,0.234,0.000,1,1,1,1,-0.002,-0.003,0.029,-0.165,0.014,0.016,0.006,0.006,0.165,0.016,0.000,0
20260703_204435,case01_baseline_boxes,6,294.5,1.000,38.007,316.734,-1.436,748.932,-10.537,0.000,-2.181,38.735,0.138,0.000,-0.582,-0.028,-0.598,0.004,0.323,0.024,-100.703,0.040,0.000,-2.892,-0.001,-0.051,0.000,0.000,-0.016,0.000,-4.591,-0.140,0.234,0.000,1,1,1,1,-0.002,-0.003,0.029,-0.165,0.017,0.019,0.007,0.006,0.165,0.019,0.000,0
20260703_204435,case01_baseline_boxes,6,294.5,1.000,38.107,315.679,-1.436,748.710,-10.523,0.000,-2.235,38.729,0.130,0.000,-0.540,-0.025,-0.555,0.003,0.327,0.024,-100.998,0.040,0.000,-2.949,-0.001,-0.051,0.000,0.000,-0.004,0.000,-4.432,-0.149,0.234,0.000,1,1,1,1,-0.002,-0.003,0.028,-0.164,0.014,0.015,0.007,0.007,0.164,0.015,0.000,0
20260703_204435,case01_baseline_boxes,6,294.5,1.000,38.207,314.624,-1.436,748.483,-10.509,0.000,-2.292,38.723,0.141,0.000,-0.570,-0.027,-0.586,0.003,0.331,0.024,-101.297,0.038,-0.001,-2.986,-0.001,-0.052,0.000,0.000,-0.009,0.000,-4.533,-0.152,0.234,0.000,1,1,1,1,-0.002,-0.003,0.028,-0.164,0.015,0.016,0.007,0.007,0.164,0.016,0.000,0
20260703_204435,case01_baseline_boxes,6,294.5,1.000,38.307,313.572,-1.436,748.251,-10.494,0.000,-2.353,38.715,0.156,0.000,-0.611,-0.030,-0.630,0.004,0.335,0.024,-101.602,0.041,-0.001,-3.051,-0.001,-0.054,0.000,0.000,-0.015,0.000,-4.665,-0.157,0.233,0.000,1,1,1,1,-0.002,-0.003,0.028,-0.164,0.015,0.017,0.007,0.007,0.164,0.017,0.000,0
20260703_204435,case01_baseline_boxes,6,294.5,1.000,38.411,312.485,-1.436,748.003,-10.499,0.000,-2.429,38.793,-0.049,0.000,-0.759,0.205,-0.732,0.005,0.339,0.024,-101.928,0.042,0.000,-3.262,-0.001,-0.056,0.000,-0.001,-0.028,0.002,-4.881,-0.164,0.237,0.000,1,1,1,1,0.001,0.003,0.036,0.200,0.017,0.018,0.007,0.007,0.200,0.018,0.000,0
20260703_204435,case01_baseline_boxes,6,294.5,1.000,38.511,311.435,-1.436,747.757,-10.480,0.001,-2.496,38.784,0.185,0.000,-0.674,-0.037,-0.698,0.005,0.344,0.024,-102.255,0.043,0.000,-3.273,-0.001,-0.059,0.000,0.000,-0.022,0.000,-5.265,-0.169,0.237,0.000,1,1,1,1,0.002,0.003,0.036,0.200,0.021,0.022,0.007,0.007,0.200,0.022,0.000,0
20260703_204435,case01_baseline_boxes,6,294.5,1.000,38.619,310.303,-1.436,747.483,-10.460,0.001,-2.566,38.774,0.197,0.000,-0.698,-0.040,-0.725,0.005,0.349,0.024,-102.623,0.050,0.001,-3.677,-0.001,-0.061,0.000,0.000,-0.023,0.000,-5.418,-0.182,0.237,0.000,1,1,1,1,0.002,0.003,0.036,0.199,0.020,0.022,0.008,0.007,0.199,0.022,0.000,0
20260703_204435,case01_baseline_boxes,6,294.5,1.000,38.723,309.224,-1.436,747.214,-10.414,0.001,-2.641,38.676,0.466,0.000,-0.747,-0.286,-0.833,0.005,0.354,0.024,-102.990,0.052,0.000,-3.665,-0.001,-0.063,0.000,0.000,-0.020,-0.002,-5.672,-0.182,0.233,0.000,1,1,1,1,-0.001,-0.003,0.028,-0.161,0.021,0.023,0.008,0.008,0.161,0.023,0.000,0
20260703_204435,case01_baseline_boxes,6,294.5,1.000,38.823,308.179,-1.435,746.945,-10.392,0.001,-2.715,38.666,0.222,0.000,-0.742,-0.044,-0.774,0.005,0.359,0.024,-103.359,0.052,0.000,-3.692,-0.001,-0.065,0.000,-0.001,-0.023,0.000,-5.837,-0.196,0.234,0.000,1,1,1,1,-0.001,-0.003,0.028,-0.161,0.021,0.023,0.008,0.008,0.161,0.023,0.000,0
20260703_204435,case01_baseline_boxes,6,294.5,1.000,38.927,307.101,-1.435,746.659,-10.368,0.001,-2.791,38.655,0.232,0.000,-0.756,-0.046,-0.790,0.005,0.365,0.024,-103.755,0.058,0.000,-3.962,-0.001,-0.067,0.000,0.000,-0.022,0.000,-5.756,-0.193,0.234,0.000,1,1,1,1,-0.002,-0.003,0.028,-0.160,0.017,0.019,0.009,0.009,0.160,0.019,0.000,0
