run_id,case_name,cargo_count,total_mass_kg,secured_frac,Time,PosX,PosY,PosZ,VelX,VelY,VelZ,SpeedKmh,AccX,AccY,AccZ,LongAcc,LatAcc,VertAcc,Roll,Pitch,Yaw,RollRate,PitchRate,YawRate,AngVelX,AngVelY,AngVelZ,AngAccX,AngAccY,AngAccZ,SteerAngle,TargetSteer,Throttle,Brake,FL_Grounded,FR_Grounded,RL_Grounded,RR_Grounded,FL_ForwardSlip,FR_ForwardSlip,RL_ForwardSlip,RR_ForwardSlip,FL_SideSlip,FR_SideSlip,RL_SideSlip,RR_SideSlip,MaxForwardSlip,MaxSideSlip,RolloverRisk,IsRollover
20260703_212530,case01_boxes_2layer,6,213.5,1.000,0.636,679.391,-1.492,736.106,-0.148,0.470,-0.006,1.775,-1.517,0.949,0.092,1.519,0.088,0.947,-0.247,-0.084,-89.996,-0.563,0.165,0.042,0.011,0.002,0.004,-0.005,0.023,0.018,12.800,0.381,1.000,0.000,1,1,1,1,-0.005,0.000,0.804,-0.365,-0.010,-0.008,-0.001,-0.001,0.804,0.010,0.000,0
20260703_212530,case01_boxes_2layer,6,213.5,1.000,0.740,679.363,-1.446,736.107,-0.380,0.400,0.019,1.989,-2.319,-0.699,0.258,2.319,0.260,-0.699,-0.304,-0.043,-89.969,-0.562,0.411,0.273,0.007,0.007,0.009,-0.035,0.047,0.048,14.508,0.386,1.000,0.000,1,1,1,1,-0.009,-0.002,0.528,-0.345,-0.012,-0.007,-0.003,-0.003,0.528,0.012,0.000,0
20260703_212530,case01_boxes_2layer,6,213.5,1.000,0.841,679.315,-1.412,736.110,-0.591,0.253,0.043,2.319,-2.106,-1.478,0.237,2.107,0.243,-1.476,-0.335,0.020,-89.920,-0.309,0.630,0.490,0.003,0.010,0.012,-0.045,0.035,0.031,14.540,0.387,1.000,0.000,1,1,1,1,-0.011,-0.003,-0.016,-0.916,-0.014,-0.007,-0.003,-0.004,0.916,0.014,0.000,0
20260703_212530,case01_boxes_2layer,6,213.5,1.000,0.941,679.246,-1.394,736.115,-0.793,0.101,0.067,2.888,-2.022,-1.519,0.235,2.025,0.238,-1.515,-0.340,0.093,-89.850,-0.052,0.731,0.692,-0.001,0.014,0.013,-0.042,0.036,0.002,14.377,0.383,1.000,0.000,1,1,1,1,-0.009,-0.003,0.106,-0.592,-0.014,-0.006,-0.003,-0.003,0.592,0.014,0.000,0
20260703_212530,case01_boxes_2layer,6,213.5,1.000,1.041,679.157,-1.390,736.123,-1.002,-0.013,0.088,3.622,-2.090,-1.132,0.218,2.094,0.215,-1.125,-0.323,0.159,-89.762,0.168,0.660,0.887,-0.005,0.017,0.010,-0.033,0.030,-0.027,14.010,0.374,1.000,0.000,1,1,1,1,-0.006,-0.002,0.163,0.095,-0.013,-0.004,-0.003,-0.003,0.163,0.013,0.000,0
20260703_212530,case01_boxes_2layer,6,213.5,1.000,1.144,679.044,-1.395,736.134,-1.199,-0.073,0.106,4.340,-1.966,-0.609,0.180,1.969,0.171,-0.601,-0.289,0.205,-89.653,0.338,0.456,1.089,-0.007,0.020,0.005,-0.021,0.026,-0.048,13.307,0.357,1.000,0.000,1,1,1,1,-0.006,-0.002,0.155,-0.258,-0.012,-0.003,-0.002,-0.003,0.258,0.012,0.000,0
20260703_212530,case01_boxes_2layer,6,213.5,1.000,1.253,678.901,-1.404,736.147,-1.424,-0.089,0.126,5.158,-2.259,-0.152,0.193,2.261,0.175,-0.142,-0.244,0.219,-89.523,0.452,0.146,1.304,-0.008,0.022,0.000,-0.010,0.026,-0.056,12.776,0.344,1.000,0.000,1,1,1,1,-0.005,-0.002,0.144,-0.095,-0.011,-0.002,-0.002,-0.002,0.144,0.011,0.000,0
20260703_212530,case01_boxes_2layer,6,213.5,1.000,1.364,678.730,-1.413,736.163,-1.645,-0.071,0.142,5.949,-2.203,0.178,0.168,2.204,0.143,0.186,-0.194,0.201,-89.373,0.500,-0.182,1.499,-0.008,0.025,-0.005,-0.002,0.022,-0.045,12.090,0.323,1.000,0.000,1,1,1,1,-0.005,-0.003,0.131,-0.177,-0.009,-0.001,-0.002,-0.002,0.177,0.009,0.000,0
20260703_212530,case01_boxes_2layer,6,213.5,1.000,1.472,678.540,-1.419,736.179,-1.873,-0.042,0.157,6.769,-2.284,0.292,0.149,2.285,0.117,0.299,-0.147,0.162,-89.216,0.474,-0.394,1.562,-0.008,0.026,-0.007,0.003,0.015,-0.023,11.380,0.309,1.000,0.000,1,1,1,1,-0.004,0.000,0.134,0.272,-0.008,0.000,-0.002,-0.002,0.272,0.008,0.000,0
20260703_212530,case01_boxes_2layer,6,213.5,1.000,1.576,678.334,-1.422,736.197,-2.073,-0.017,0.170,7.489,-1.999,0.241,0.130,2.001,0.097,0.245,-0.104,0.116,-89.057,0.428,-0.455,1.597,-0.007,0.027,-0.007,0.005,0.012,-0.002,10.663,0.291,1.000,0.000,1,1,1,1,-0.004,0.000,0.131,0.253,-0.006,0.001,-0.002,-0.003,0.253,0.006,0.000,0
20260703_212530,case01_boxes_2layer,6,213.5,1.000,1.681,678.107,-1.423,736.216,-2.290,0.001,0.183,8.270,-2.168,0.181,0.128,2.170,0.086,0.184,-0.065,0.074,-88.892,0.394,-0.418,1.647,-0.006,0.028,-0.006,0.007,0.009,0.014,9.940,0.272,1.000,0.000,1,1,1,1,-0.005,-0.002,0.127,0.029,-0.007,0.000,-0.002,-0.002,0.127,0.007,0.000,0
20260703_212530,case01_boxes_2layer,6,213.5,1.000,1.793,677.838,-1.422,736.238,-2.509,0.010,0.198,9.059,-2.187,0.091,0.154,2.190,0.105,0.093,-0.027,0.042,-88.708,0.377,-0.323,1.844,-0.006,0.029,-0.004,0.008,0.010,0.025,9.240,0.254,1.000,0.000,1,1,1,1,-0.005,-0.001,0.127,0.084,-0.004,0.002,-0.003,-0.003,0.127,0.004,0.000,0
20260703_212530,case01_boxes_2layer,6,213.5,1.000,1.896,677.568,-1.421,736.260,-2.706,0.013,0.213,9.771,-1.972,0.027,0.144,1.975,0.094,0.028,0.003,0.027,-88.532,0.303,-0.149,1.754,-0.005,0.030,-0.001,0.008,0.008,0.024,8.881,0.245,1.000,0.000,1,1,1,1,-0.005,-0.001,0.127,0.083,-0.005,0.000,-0.003,-0.003,0.127,0.005,0.000,0
20260703_212530,case01_boxes_2layer,6,213.5,1.000,2.001,677.274,-1.420,736.284,-2.922,0.012,0.228,10.551,-2.161,-0.002,0.151,2.165,0.088,-0.001,0.029,0.026,-88.352,0.256,-0.012,1.800,-0.004,0.030,0.001,0.009,0.004,0.022,8.246,0.229,1.000,0.000,1,1,1,1,-0.005,-0.001,0.128,0.082,-0.004,0.001,-0.003,-0.003,0.128,0.004,0.000,0
20260703_212530,case01_boxes_2layer,6,213.5,1.000,2.105,676.961,-1.419,736.309,-3.117,0.011,0.242,11.257,-1.955,-0.012,0.143,1.958,0.081,-0.011,0.049,0.035,-88.171,0.204,0.091,1.817,-0.003,0.031,0.002,0.009,0.003,0.013,7.658,0.213,1.000,0.000,1,1,1,1,-0.005,-0.001,0.128,0.082,-0.002,0.003,-0.003,-0.003,0.128,0.003,0.000,0
20260703_212530,case01_boxes_2layer,6,213.5,1.000,2.205,676.639,-1.418,736.335,-3.312,0.010,0.257,11.959,-1.946,-0.014,0.148,1.950,0.080,-0.013,0.064,0.049,-87.995,0.148,0.143,1.758,-0.002,0.031,0.003,0.009,0.001,0.006,7.282,0.199,1.000,0.000,1,1,1,1,-0.005,-0.001,0.129,0.082,-0.003,0.002,-0.003,-0.003,0.129,0.003,0.000,0
20260703_212530,case01_boxes_2layer,6,213.5,1.000,2.317,676.255,-1.417,736.365,-3.525,0.008,0.273,12.729,-2.132,-0.017,0.157,2.136,0.075,-0.015,0.075,0.067,-87.799,0.108,0.177,1.959,-0.001,0.030,0.003,0.009,-0.002,-0.001,6.730,0.189,1.000,0.000,1,1,1,1,-0.004,-0.001,0.130,0.082,-0.002,0.002,-0.003,-0.003,0.130,0.003,0.000,0
20260703_212530,case01_boxes_2layer,6,213.5,1.000,2.424,675.864,-1.416,736.396,-3.737,0.006,0.289,13.494,-2.120,-0.020,0.163,2.125,0.074,-0.017,0.080,0.082,-87.612,0.049,0.149,1.866,0.000,0.030,0.002,0.008,-0.004,-0.006,6.215,0.175,1.000,0.000,1,1,1,1,-0.004,-0.001,0.130,0.083,-0.001,0.002,-0.003,-0.003,0.130,0.003,0.000,0
20260703_212530,case01_boxes_2layer,6,213.5,1.000,2.532,675.449,-1.415,736.428,-3.948,0.003,0.305,14.256,-2.110,-0.025,0.159,2.115,0.065,-0.021,0.080,0.093,-87.428,-0.001,0.107,1.844,0.000,0.029,0.001,0.007,-0.007,-0.008,5.578,0.158,1.000,0.000,1,1,1,1,-0.004,-0.001,0.130,0.083,0.001,0.004,-0.004,-0.004,0.130,0.004,0.000,0
20260703_212530,case01_boxes_2layer,6,213.5,1.000,2.636,675.028,-1.415,736.461,-4.139,0.001,0.318,14.945,-1.910,-0.025,0.134,1.915,0.043,-0.022,0.076,0.098,-87.256,-0.040,0.055,1.719,0.001,0.028,0.000,0.005,-0.010,-0.008,5.176,0.147,1.000,0.000,1,1,1,1,-0.004,-0.001,0.130,0.083,0.000,0.003,-0.004,-0.004,0.130,0.004,0.000,0
20260703_212530,case01_boxes_2layer,6,213.5,1.000,2.824,674.219,-1.415,736.525,-4.499,-0.003,0.350,16.245,-3.596,-0.043,0.313,3.608,0.122,-0.037,0.060,0.098,-86.958,-0.156,-0.005,2.974,0.002,0.027,-0.001,0.009,-0.013,-0.011,4.494,0.129,1.000,0.000,1,1,1,1,-0.004,-0.001,0.130,0.082,0.001,0.003,-0.004,-0.004,0.130,0.004,0.000,0
20260703_212530,case01_boxes_2layer,6,213.5,1.000,2.928,673.738,-1.416,736.563,-4.687,-0.005,0.367,16.924,-1.878,-0.015,0.175,1.885,0.070,-0.012,0.048,0.093,-86.798,-0.125,-0.041,1.602,0.002,0.026,-0.001,0.003,-0.007,-0.003,4.168,0.120,1.000,0.000,1,1,1,1,-0.004,-0.001,0.130,0.082,0.001,0.003,-0.004,-0.004,0.130,0.004,0.000,0
20260703_212530,case01_boxes_2layer,6,213.5,1.000,3.045,673.180,-1.416,736.607,-4.911,-0.006,0.389,17.734,-2.241,-0.008,0.214,2.249,0.082,-0.005,0.032,0.088,-86.626,-0.161,-0.057,1.726,0.002,0.025,-0.001,0.003,-0.009,-0.001,3.687,0.107,1.000,0.000,1,1,1,1,-0.004,-0.001,0.129,0.082,0.003,0.004,-0.004,-0.004,0.129,0.004,0.000,0
20260703_212530,case01_boxes_2layer,6,213.5,1.000,3.153,672.638,-1.417,736.651,-5.092,-0.004,0.407,18.391,-1.815,0.018,0.185,1.823,0.073,0.021,0.015,0.083,-86.471,-0.163,-0.052,1.548,0.003,0.025,-0.001,0.001,-0.007,-0.003,3.397,0.099,1.000,0.000,1,1,1,1,-0.011,-0.034,0.071,-0.675,0.002,0.003,-0.004,-0.004,0.675,0.004,0.000,0
20260703_212530,case01_boxes_2layer,6,213.5,1.000,3.261,672.077,-1.417,736.696,-5.320,-0.004,0.430,19.214,-2.276,-0.002,0.233,2.287,0.086,0.001,-0.001,0.078,-86.321,-0.167,-0.051,1.496,0.003,0.024,-0.001,0.001,-0.009,0.006,3.135,0.091,1.000,0.000,1,1,1,1,0.012,0.384,0.315,0.608,0.004,0.005,-0.005,-0.005,0.608,0.005,0.000,0
20260703_212530,case01_boxes_2layer,6,213.5,1.000,3.364,671.517,-1.418,736.742,-5.494,-0.004,0.449,19.843,-1.737,0.004,0.185,1.746,0.069,0.006,-0.017,0.075,-86.184,-0.157,-0.025,1.372,0.003,0.023,0.000,-0.001,-0.007,0.002,2.875,0.081,1.000,0.000,1,1,1,1,-0.003,0.272,0.290,-0.565,0.001,0.002,-0.004,-0.004,0.565,0.004,0.000,0
20260703_212530,case01_boxes_2layer,6,213.5,1.000,3.477,670.888,-1.418,736.794,-5.643,-0.003,0.464,20.383,-1.492,0.010,0.154,1.499,0.051,0.012,-0.033,0.074,-86.042,-0.158,-0.009,1.419,0.002,0.022,-0.001,-0.003,-0.010,-0.004,2.513,0.074,0.972,0.000,1,1,1,1,-0.015,-0.515,-0.029,-0.461,0.003,0.003,-0.004,-0.004,0.515,0.004,0.000,0
20260703_212530,case01_boxes_2layer,6,213.5,1.000,3.585,670.262,-1.418,736.846,-5.914,-0.002,0.492,21.365,-2.716,0.010,0.277,2.728,0.083,0.013,-0.046,0.074,-85.913,-0.134,0.003,1.293,0.002,0.020,0.000,-0.002,-0.021,0.012,2.300,0.068,0.953,0.000,1,1,1,1,-0.002,0.332,0.239,0.096,0.003,0.004,-0.004,-0.004,0.332,0.004,0.000,0
20260703_212530,case01_boxes_2layer,6,213.5,1.000,3.692,669.618,-1.418,736.900,-6.058,-0.001,0.508,21.885,-1.436,0.009,0.160,1.443,0.055,0.011,-0.057,0.075,-85.791,-0.113,0.007,1.217,0.002,0.019,0.000,-0.005,-0.010,-0.005,1.992,0.059,0.921,0.000,1,1,1,1,-0.009,-0.412,0.005,0.112,0.004,0.004,-0.004,-0.004,0.412,0.004,0.000,0
20260703_212530,case01_boxes_2layer,6,213.5,1.000,3.793,669.001,-1.418,736.953,-6.212,0.000,0.525,22.444,-1.545,0.004,0.167,1.553,0.051,0.006,-0.066,0.075,-85.684,-0.083,0.000,1.069,0.001,0.018,0.000,-0.004,-0.011,-0.001,1.726,0.051,0.902,0.000,1,1,1,1,-0.002,-0.368,0.021,0.526,0.006,0.006,-0.004,-0.004,0.526,0.006,0.000,0
20260703_212530,case01_boxes_2layer,6,213.5,1.000,3.901,668.320,-1.418,737.011,-6.390,0.000,0.544,23.088,-1.778,0.001,0.192,1.787,0.055,0.004,-0.072,0.075,-85.579,-0.060,-0.004,1.052,0.001,0.017,0.000,-0.005,-0.012,0.000,1.487,0.044,0.876,0.000,1,1,1,1,-0.004,0.355,0.209,-0.431,0.004,0.004,-0.004,-0.004,0.431,0.004,0.000,0
20260703_212530,case01_boxes_2layer,6,213.5,1.000,4.009,667.623,-1.418,737.071,-6.569,0.000,0.564,23.736,-1.792,-0.001,0.194,1.801,0.053,0.001,-0.075,0.073,-85.482,-0.032,-0.013,0.970,0.000,0.015,0.000,-0.004,-0.018,0.004,1.367,0.041,0.862,0.000,1,1,1,1,0.007,0.353,0.188,0.538,0.005,0.005,-0.005,-0.005,0.538,0.005,0.000,0
20260703_212530,case01_boxes_2layer,6,213.5,1.000,4.113,666.931,-1.418,737.130,-6.668,0.000,0.577,24.094,-0.985,-0.001,0.132,0.992,0.052,0.001,-0.076,0.072,-85.395,-0.006,-0.015,0.867,0.000,0.015,-0.001,-0.005,-0.001,-0.009,1.177,0.036,0.826,0.000,1,1,1,1,-0.010,-0.344,0.053,-0.243,0.003,0.003,-0.003,-0.003,0.344,0.003,0.000,0
20260703_212530,case01_boxes_2layer,6,213.5,1.000,4.221,666.198,-1.418,737.194,-6.851,0.000,0.598,24.759,-1.837,0.000,0.214,1.848,0.063,0.002,-0.074,0.070,-85.312,0.017,-0.017,0.829,-0.001,0.013,0.000,-0.003,-0.015,0.004,1.012,0.031,0.808,0.000,1,1,1,1,-0.003,0.325,0.153,-0.424,0.004,0.004,-0.004,-0.004,0.424,0.004,0.000,0
20260703_212530,case01_boxes_2layer,6,213.5,1.000,4.328,665.453,-1.418,737.260,-7.009,0.000,0.616,25.330,-1.578,0.001,0.179,1.587,0.047,0.003,-0.070,0.068,-85.236,0.039,-0.022,0.768,-0.001,0.012,0.000,-0.003,-0.014,0.003,0.917,0.028,0.790,0.000,1,1,1,1,-0.001,0.318,0.147,-0.064,0.004,0.004,-0.004,-0.004,0.318,0.004,0.000,0
20260703_212530,case01_boxes_2layer,6,213.5,1.000,4.432,664.716,-1.418,737.325,-7.137,0.000,0.631,25.792,-1.274,0.002,0.153,1.283,0.045,0.003,-0.064,0.066,-85.167,0.055,-0.023,0.689,-0.001,0.011,0.000,-0.003,-0.007,-0.002,0.771,0.023,0.766,0.000,1,1,1,1,-0.006,-0.308,0.063,0.127,0.004,0.004,-0.003,-0.003,0.308,0.004,0.000,0
20260703_212530,case01_boxes_2layer,6,213.5,1.000,4.545,663.907,-1.419,737.397,-7.304,0.000,0.650,26.399,-1.675,0.002,0.192,1.685,0.049,0.004,-0.057,0.063,-85.098,0.074,-0.026,0.683,-0.001,0.010,0.000,-0.002,-0.016,0.005,0.644,0.020,0.755,0.000,1,1,1,1,0.004,0.302,0.133,0.460,0.005,0.005,-0.004,-0.004,0.460,0.005,0.000,0
20260703_212530,case01_boxes_2layer,6,213.5,1.000,4.657,663.085,-1.418,737.471,-7.416,0.000,0.664,26.804,-1.118,0.003,0.136,1.125,0.039,0.004,-0.048,0.061,-85.037,0.085,-0.021,0.616,-0.001,0.009,0.000,-0.002,-0.004,-0.002,0.566,0.016,0.728,0.000,1,1,1,1,-0.004,-0.285,0.073,0.246,0.004,0.004,-0.003,-0.003,0.285,0.004,0.000,0
20260703_212530,case01_boxes_2layer,6,213.5,1.000,4.769,662.247,-1.418,737.546,-7.555,0.000,0.680,27.309,-1.394,0.002,0.161,1.403,0.038,0.004,-0.039,0.059,-84.980,0.092,-0.021,0.564,-0.001,0.008,0.000,-0.001,-0.012,0.002,0.457,0.014,0.718,0.000,1,1,1,1,0.005,0.280,0.119,0.482,0.005,0.005,-0.004,-0.004,0.482,0.005,0.000,0
20260703_212530,case01_boxes_2layer,6,213.5,1.000,4.873,661.457,-1.418,737.618,-7.644,0.001,0.691,27.631,-0.886,0.002,0.110,0.893,0.031,0.003,-0.030,0.057,-84.933,0.088,-0.017,0.475,-0.002,0.008,0.000,-0.001,-0.001,-0.004,0.364,0.011,0.691,0.000,1,1,1,1,-0.007,-0.269,0.057,0.023,0.003,0.003,-0.003,-0.003,0.269,0.003,0.000,0
20260703_212530,case01_boxes_2layer,6,213.5,1.000,4.984,660.594,-1.418,737.696,-7.794,0.001,0.708,28.175,-1.505,0.001,0.166,1.513,0.031,0.002,-0.021,0.056,-84.887,0.094,-0.016,0.462,-0.001,0.006,0.000,0.001,-0.015,0.005,0.280,0.008,0.683,0.000,1,1,1,1,0.005,0.258,0.118,0.469,0.005,0.005,-0.003,-0.003,0.469,0.005,0.000,0
20260703_212530,case01_boxes_2layer,6,213.5,1.000,5.089,659.779,-1.418,737.770,-7.909,0.001,0.721,28.591,-1.147,0.000,0.127,1.154,0.024,0.001,-0.013,0.055,-84.848,0.083,-0.010,0.384,-0.001,0.005,0.000,0.001,-0.009,0.002,0.211,0.006,0.666,0.000,1,1,1,1,0.003,0.244,0.111,0.372,0.005,0.005,-0.003,-0.003,0.372,0.005,0.000,0
20260703_212530,case01_boxes_2layer,6,213.5,1.000,5.193,658.953,-1.418,737.846,-7.969,0.001,0.728,28.809,-0.602,0.000,0.078,0.607,0.023,0.000,-0.005,0.053,-84.813,0.076,-0.012,0.351,-0.001,0.006,0.000,0.001,0.004,-0.006,0.150,0.004,0.643,0.000,1,1,1,1,-0.007,-0.234,0.059,-0.033,0.003,0.003,-0.002,-0.002,0.234,0.003,0.000,0
20260703_212530,case01_boxes_2layer,6,213.5,1.000,5.297,658.117,-1.418,737.923,-8.045,0.001,0.737,29.082,-0.753,-0.001,0.088,0.757,0.020,0.000,0.002,0.052,-84.782,0.068,-0.011,0.315,-0.001,0.006,-0.001,0.001,-0.001,-0.003,0.102,0.003,0.628,0.000,1,1,1,1,-0.007,-0.222,0.059,-0.236,0.003,0.003,-0.002,-0.002,0.236,0.003,0.000,0
20260703_212530,case01_boxes_2layer,6,213.5,1.000,5.401,657.273,-1.418,738.000,-8.210,0.000,0.754,29.682,-1.657,-0.002,0.172,1.666,0.020,-0.001,0.007,0.051,-84.754,0.058,-0.009,0.280,-0.001,0.004,0.000,0.003,-0.020,0.009,0.055,0.002,0.620,0.000,1,1,1,1,0.000,0.206,0.103,0.220,0.004,0.004,-0.003,-0.003,0.220,0.004,0.000,0
20260703_212530,case01_boxes_2layer,6,213.5,1.000,5.505,656.418,-1.418,738.079,-8.291,0.000,0.764,29.975,-0.811,-0.002,0.092,0.816,0.017,-0.001,0.012,0.051,-84.729,0.046,-0.008,0.250,-0.001,0.003,0.000,0.002,-0.003,-0.001,0.024,0.001,0.610,0.000,1,1,1,1,0.004,0.192,0.100,0.427,0.004,0.004,-0.003,-0.003,0.427,0.004,0.000,0
20260703_212530,case01_boxes_2layer,6,213.5,1.000,5.609,655.553,-1.418,738.159,-8.385,0.000,0.774,30.313,-0.932,-0.002,0.102,0.937,0.016,-0.001,0.016,0.050,-84.706,0.035,-0.007,0.223,0.000,0.003,0.000,0.002,-0.006,0.001,-0.007,0.000,0.596,0.000,1,1,1,1,0.001,0.174,0.097,0.285,0.004,0.004,-0.003,-0.003,0.285,0.004,0.000,0
20260703_212530,case01_boxes_2layer,6,213.5,1.000,5.713,654.680,-1.418,738.240,-8.426,0.000,0.779,30.463,-0.416,-0.002,0.055,0.419,0.017,-0.001,0.018,0.049,-84.686,0.023,-0.010,0.205,0.000,0.004,0.000,0.001,0.007,-0.007,-0.032,-0.001,0.577,0.000,1,1,1,1,-0.006,-0.153,0.059,-0.112,0.003,0.003,-0.002,-0.002,0.153,0.003,0.000,0
20260703_212530,case01_boxes_2layer,6,213.5,1.000,5.817,653.796,-1.418,738.322,-8.490,0.000,0.787,30.694,-0.636,-0.002,0.072,0.640,0.013,-0.001,0.019,0.048,-84.667,0.011,-0.010,0.184,0.000,0.004,-0.001,0.002,0.000,-0.002,-0.069,-0.002,0.564,0.000,1,1,1,1,-0.006,-0.123,0.061,-0.318,0.003,0.003,-0.002,-0.002,0.318,0.003,0.000,0
20260703_212530,case01_boxes_2layer,6,213.5,1.000,5.929,652.838,-1.418,738.410,-8.632,0.000,0.801,31.209,-1.424,-0.002,0.148,1.432,0.015,-0.001,0.019,0.047,-84.650,0.000,-0.009,0.175,0.000,0.002,0.000,0.003,-0.016,0.008,-0.085,-0.002,0.558,0.000,1,1,1,1,0.000,0.077,0.088,0.285,0.003,0.003,-0.002,-0.002,0.285,0.003,0.000,0
20260703_212530,case01_boxes_2layer,6,213.5,1.000,6.041,651.870,-1.418,738.500,-8.717,-0.001,0.811,31.518,-0.852,-0.002,0.096,0.858,0.016,-0.001,0.018,0.046,-84.634,-0.011,-0.013,0.163,0.000,0.002,0.000,0.002,-0.002,0.000,-0.104,-0.003,0.545,0.000,1,1,1,1,0.000,0.026,0.084,0.293,0.003,0.003,-0.002,-0.002,0.293,0.003,0.000,0
20260703_212530,case01_boxes_2layer,6,213.5,1.000,6.153,650.894,-1.418,738.591,-8.756,-0.001,0.816,31.660,-0.391,-0.001,0.050,0.394,0.013,-0.001,0.016,0.045,-84.619,-0.020,-0.010,0.144,0.000,0.002,0.000,0.001,0.006,-0.005,-0.119,-0.003,0.530,0.000,1,1,1,1,-0.004,-0.018,0.060,-0.156,0.003,0.003,-0.002,-0.002,0.156,0.003,0.000,0
20260703_212530,case01_boxes_2layer,6,213.5,1.000,6.257,649.977,-1.418,738.677,-8.812,-0.001,0.822,31.862,-0.557,0.000,0.065,0.561,0.013,0.000,0.013,0.043,-84.607,-0.025,-0.010,0.124,0.000,0.003,-0.001,0.001,0.001,-0.002,-0.124,-0.004,0.519,0.000,1,1,1,1,-0.005,-0.015,0.060,-0.306,0.002,0.002,-0.002,-0.002,0.306,0.002,0.000,0
20260703_212530,case01_boxes_2layer,6,213.5,1.000,6.368,648.984,-1.418,738.770,-8.932,-0.001,0.835,32.297,-1.202,-0.001,0.126,1.209,0.013,0.000,0.010,0.043,-84.595,-0.032,-0.009,0.120,0.001,0.001,0.000,0.001,-0.012,0.007,-0.136,-0.004,0.514,0.000,1,1,1,1,0.000,0.014,0.079,0.313,0.003,0.003,-0.002,-0.002,0.313,0.003,0.000,0
20260703_212530,case01_boxes_2layer,6,213.5,1.000,6.480,647.983,-1.418,738.864,-9.007,-0.001,0.844,32.567,-0.746,0.000,0.085,0.751,0.014,0.001,0.007,0.041,-84.584,-0.036,-0.011,0.114,0.001,0.001,0.000,0.000,-0.001,0.000,-0.124,-0.004,0.504,0.000,1,1,1,1,0.001,0.013,0.078,0.321,0.003,0.003,-0.002,-0.002,0.321,0.003,0.000,0
20260703_212530,case01_boxes_2layer,6,213.5,1.000,6.585,647.043,-1.419,738.951,-9.062,-0.001,0.850,32.768,-0.555,0.000,0.064,0.559,0.012,0.001,0.003,0.041,-84.574,-0.034,-0.008,0.096,0.001,0.001,0.000,0.000,0.000,-0.001,-0.144,-0.004,0.496,0.000,1,1,1,1,0.002,0.013,0.077,0.387,0.003,0.003,-0.002,-0.002,0.387,0.003,0.000,0
20260703_212530,case01_boxes_2layer,6,213.5,1.000,6.685,646.136,-1.419,739.037,-9.124,-0.001,0.857,32.992,-0.618,0.000,0.071,0.622,0.012,0.001,0.000,0.040,-84.565,-0.033,-0.007,0.087,0.001,0.001,0.000,0.000,-0.002,0.001,-0.142,-0.005,0.487,0.000,1,1,1,1,0.001,0.012,0.075,0.333,0.003,0.003,-0.002,-0.002,0.333,0.003,0.000,0
20260703_212530,case01_boxes_2layer,6,213.5,1.000,6.792,645.153,-1.419,739.129,-9.145,-0.001,0.860,33.066,-0.203,0.001,0.032,0.205,0.013,0.001,-0.004,0.039,-84.557,-0.034,-0.007,0.087,0.000,0.002,0.000,-0.001,0.008,-0.006,-0.150,-0.005,0.472,0.000,1,1,1,1,-0.004,-0.013,0.055,-0.218,0.002,0.002,-0.001,-0.001,0.218,0.002,0.000,0
20260703_212530,case01_boxes_2layer,6,213.5,1.000,6.905,644.120,-1.419,739.226,-9.242,-0.001,0.871,33.420,-0.977,0.000,0.106,0.983,0.013,0.001,-0.007,0.039,-84.548,-0.032,-0.008,0.087,0.000,0.001,0.000,0.000,-0.009,0.005,-0.153,-0.005,0.470,0.000,1,1,1,1,0.002,0.012,0.073,0.367,0.003,0.003,-0.002,-0.002,0.367,0.003,0.000,0
20260703_212530,case01_boxes_2layer,6,213.5,1.000,7.005,643.193,-1.419,739.314,-9.295,-0.001,0.877,33.612,-0.530,0.001,0.062,0.534,0.012,0.001,-0.009,0.038,-84.541,-0.025,-0.006,0.072,0.000,0.001,0.000,-0.001,-0.001,0.000,-0.151,-0.005,0.462,0.000,1,1,1,1,0.001,0.011,0.072,0.347,0.003,0.003,-0.002,-0.002,0.347,0.003,0.000,0
20260703_212530,case01_boxes_2layer,6,213.5,1.000,7.113,642.191,-1.419,739.409,-9.309,0.000,0.880,33.660,-0.132,0.001,0.025,0.134,0.012,0.001,-0.011,0.037,-84.533,-0.022,-0.006,0.074,0.000,0.002,0.000,-0.001,0.008,-0.006,-0.155,-0.005,0.448,0.000,1,1,1,1,-0.004,-0.012,0.053,-0.242,0.002,0.002,-0.001,-0.001,0.242,0.002,0.000,0
20260703_212530,case01_boxes_2layer,6,213.5,1.000,7.220,641.183,-1.419,739.504,-9.402,0.000,0.890,34.000,-0.939,0.000,0.101,0.944,0.011,0.001,-0.013,0.037,-84.526,-0.016,-0.007,0.071,0.000,0.001,0.000,0.000,-0.009,0.006,-0.162,-0.005,0.447,0.000,1,1,1,1,0.001,0.011,0.069,0.351,0.003,0.003,-0.002,-0.002,0.351,0.003,0.000,0
20260703_212530,case01_boxes_2layer,6,213.5,1.000,7.321,640.241,-1.419,739.593,-9.449,0.000,0.895,34.168,-0.463,0.001,0.055,0.466,0.010,0.001,-0.014,0.036,-84.520,-0.010,-0.005,0.060,0.000,0.001,0.000,-0.001,-0.001,0.000,-0.159,-0.005,0.440,0.000,1,1,1,1,0.001,0.010,0.068,0.347,0.003,0.003,-0.002,-0.002,0.347,0.003,0.000,0
20260703_212530,case01_boxes_2layer,6,213.5,1.000,7.433,639.183,-1.419,739.694,-9.456,0.000,0.897,34.196,-0.077,0.001,0.018,0.078,0.011,0.001,-0.015,0.036,-84.514,-0.005,-0.005,0.061,0.000,0.001,0.000,-0.001,0.008,-0.006,-0.161,-0.005,0.427,0.000,1,1,1,1,-0.004,-0.011,0.051,-0.248,0.002,0.002,-0.001,-0.001,0.248,0.002,0.000,0
20260703_212530,case01_boxes_2layer,6,213.5,1.000,7.541,638.157,-1.419,739.791,-9.545,0.000,0.907,34.516,-0.883,0.000,0.095,0.888,0.010,0.001,-0.015,0.035,-84.508,0.000,-0.007,0.060,0.000,0.000,0.000,0.000,-0.009,0.006,-0.162,-0.005,0.426,0.000,1,1,1,1,0.001,0.010,0.066,0.344,0.003,0.003,-0.002,-0.002,0.344,0.003,0.000,0
20260703_212530,case01_boxes_2layer,6,213.5,1.000,7.641,637.201,-1.419,739.882,-9.586,0.000,0.912,34.665,-0.412,0.001,0.049,0.415,0.009,0.001,-0.014,0.034,-84.503,0.005,-0.005,0.050,0.000,0.000,0.000,-0.001,0.000,0.000,-0.160,-0.005,0.420,0.000,1,1,1,1,0.001,0.009,0.065,0.342,0.003,0.003,-0.002,-0.002,0.342,0.003,0.000,0
20260703_212530,case01_boxes_2layer,6,213.5,1.000,7.749,636.166,-1.419,739.980,-9.626,0.000,0.916,34.810,-0.398,0.001,0.047,0.401,0.008,0.001,-0.013,0.034,-84.498,0.009,-0.004,0.049,0.000,0.000,0.000,-0.001,-0.001,0.000,-0.162,-0.005,0.414,0.000,1,1,1,1,0.002,0.009,0.064,0.340,0.003,0.003,-0.002,-0.002,0.340,0.003,0.000,0
20260703_212530,case01_boxes_2layer,6,213.5,1.000,7.849,635.202,-1.419,740.072,-9.664,0.000,0.921,34.949,-0.384,0.000,0.045,0.387,0.008,0.001,-0.012,0.034,-84.494,0.012,-0.005,0.045,0.000,0.000,0.000,0.000,0.000,0.000,-0.161,-0.005,0.409,0.000,1,1,1,1,0.002,0.009,0.064,0.338,0.003,0.003,-0.002,-0.002,0.338,0.003,0.000,0
20260703_212530,case01_boxes_2layer,6,213.5,1.000,7.957,634.160,-1.419,740.172,-9.664,0.000,0.921,34.949,0.001,0.001,0.008,-0.001,0.008,0.001,-0.011,0.033,-84.489,0.016,-0.006,0.046,0.000,0.001,0.000,-0.001,0.008,-0.006,-0.166,-0.005,0.397,0.000,1,1,1,1,-0.004,-0.009,0.047,-0.248,0.002,0.002,-0.001,-0.001,0.248,0.002,0.000,0
20260703_212530,case01_boxes_2layer,6,213.5,1.000,8.064,633.115,-1.419,740.271,-9.744,0.000,0.930,35.238,-0.800,0.000,0.083,0.805,0.006,0.000,-0.009,0.033,-84.485,0.017,-0.005,0.040,0.000,0.000,0.000,0.000,-0.009,0.006,-0.169,-0.006,0.397,0.000,1,1,1,1,0.002,0.009,0.062,0.334,0.003,0.003,-0.002,-0.002,0.334,0.003,0.000,0
20260703_212530,case01_boxes_2layer,6,213.5,1.000,8.175,632.034,-1.419,740.374,-9.741,0.000,0.930,35.228,0.030,0.001,0.004,-0.030,0.007,0.001,-0.007,0.032,-84.481,0.019,-0.005,0.038,0.000,0.001,0.000,-0.001,0.008,-0.006,-0.175,-0.006,0.385,0.000,1,1,1,1,-0.004,-0.009,0.046,-0.248,0.002,0.002,-0.001,-0.001,0.248,0.002,0.000,0
20260703_212530,case01_boxes_2layer,6,213.5,1.000,8.280,631.012,-1.419,740.472,-9.774,0.000,0.934,35.348,-0.331,0.000,0.037,0.333,0.005,0.000,-0.005,0.032,-84.478,0.019,-0.005,0.033,0.000,0.001,0.000,0.000,-0.001,0.000,-0.174,-0.006,0.381,0.000,1,1,1,1,-0.003,-0.009,0.046,-0.248,0.002,0.002,-0.001,-0.001,0.248,0.002,0.000,0
20260703_212530,case01_boxes_2layer,6,213.5,1.000,8.387,629.956,-1.419,740.573,-9.850,0.000,0.942,35.621,-0.756,0.000,0.077,0.760,0.004,0.000,-0.003,0.031,-84.475,0.019,-0.003,0.028,0.000,0.000,0.000,0.001,-0.009,0.006,-0.178,-0.006,0.381,0.000,1,1,1,1,0.002,0.008,0.060,0.329,0.003,0.003,-0.001,-0.001,0.329,0.003,0.000,0
20260703_212530,case01_boxes_2layer,6,213.5,1.000,8.491,628.931,-1.419,740.671,-9.843,0.000,0.941,35.597,0.068,0.000,-0.003,-0.068,0.004,0.000,-0.001,0.031,-84.473,0.017,-0.004,0.025,0.000,0.001,0.000,0.000,0.008,-0.006,-0.183,-0.006,0.371,0.000,1,1,1,1,-0.003,-0.009,0.045,-0.248,0.002,0.002,-0.001,-0.001,0.248,0.002,0.000,0
20260703_212530,case01_boxes_2layer,6,213.5,1.000,8.596,627.902,-1.419,740.769,-9.873,0.000,0.944,35.704,-0.296,0.000,0.031,0.297,0.002,0.000,0.000,0.030,-84.470,0.016,-0.004,0.023,0.000,0.001,0.000,0.000,-0.001,0.000,-0.183,-0.006,0.366,0.000,1,1,1,1,-0.003,-0.008,0.044,-0.248,0.002,0.002,-0.001,-0.001,0.248,0.002,0.000,0
20260703_212530,case01_boxes_2layer,6,213.5,1.000,8.708,626.791,-1.419,740.876,-9.944,0.000,0.952,35.963,-0.716,-0.001,0.071,0.720,0.002,0.000,0.002,0.030,-84.468,0.015,-0.003,0.019,0.000,0.000,0.000,0.001,-0.009,0.006,-0.191,-0.006,0.368,0.000,1,1,1,1,0.002,0.008,0.058,0.324,0.003,0.003,-0.001,-0.001,0.324,0.003,0.000,0
20260703_212530,case01_boxes_2layer,6,213.5,1.000,8.819,625.680,-1.419,740.982,-9.934,0.000,0.951,35.926,0.101,0.000,-0.009,-0.102,0.001,0.000,0.003,0.030,-84.467,0.013,-0.005,0.017,0.000,0.001,0.000,0.000,0.008,-0.006,-0.194,-0.006,0.358,0.000,1,1,1,1,-0.003,-0.008,0.043,-0.248,0.002,0.002,-0.001,-0.001,0.248,0.002,0.000,0
20260703_212530,case01_boxes_2layer,6,213.5,1.000,8.921,624.665,-1.419,741.079,-10.003,0.000,0.957,36.176,-0.691,-0.001,0.067,0.694,0.000,0.000,0.004,0.029,-84.466,0.009,-0.003,0.010,0.000,0.000,0.000,0.001,-0.009,0.005,-0.200,-0.007,0.359,0.000,1,1,1,1,0.002,0.008,0.056,0.322,0.003,0.003,-0.001,-0.001,0.322,0.003,0.000,0
20260703_212530,case01_boxes_2layer,6,213.5,1.000,9.027,623.605,-1.419,741.181,-10.029,0.000,0.960,36.268,-0.253,0.000,0.025,0.254,0.000,0.000,0.005,0.029,-84.465,0.007,-0.002,0.006,0.000,0.000,0.000,0.000,-0.001,0.000,-0.198,-0.007,0.355,0.000,1,1,1,1,0.002,0.008,0.056,0.320,0.002,0.002,-0.001,-0.001,0.320,0.002,0.000,0
20260703_212530,case01_boxes_2layer,6,213.5,1.000,9.135,622.522,-1.419,741.284,-10.015,0.000,0.958,36.220,0.131,0.000,-0.014,-0.132,-0.001,0.000,0.005,0.029,-84.465,0.005,-0.004,0.004,0.000,0.000,0.000,0.000,0.008,-0.006,-0.206,-0.007,0.346,0.000,1,1,1,1,-0.003,-0.008,0.042,-0.247,0.002,0.002,-0.001,-0.001,0.247,0.002,0.000,0
20260703_212530,case01_boxes_2layer,6,213.5,1.000,9.240,621.475,-1.419,741.384,-10.039,0.000,0.961,36.305,-0.236,0.000,0.022,0.237,-0.001,0.000,0.005,0.028,-84.465,0.003,-0.004,0.001,0.000,0.000,0.000,0.000,-0.001,0.000,-0.205,-0.007,0.342,0.000,1,1,1,1,-0.003,-0.008,0.041,-0.247,0.002,0.002,-0.001,-0.001,0.247,0.002,0.000,0
20260703_212530,case01_boxes_2layer,6,213.5,1.000,9.343,620.430,-1.419,741.484,-10.104,0.000,0.967,36.540,-0.648,-0.001,0.061,0.651,-0.002,0.000,0.005,0.028,-84.465,0.001,-0.002,-0.004,0.000,-0.001,0.000,0.001,-0.009,0.005,-0.209,-0.007,0.344,0.000,1,1,1,1,0.002,0.007,0.054,0.317,0.002,0.002,-0.001,-0.001,0.317,0.002,0.000,0
20260703_212530,case01_boxes_2layer,6,213.5,1.000,9.447,619.381,-1.419,741.585,-10.126,0.000,0.969,36.619,-0.218,0.000,0.018,0.219,-0.003,0.000,0.005,0.028,-84.466,-0.001,-0.002,-0.008,0.000,-0.001,0.000,0.000,-0.001,0.000,-0.210,-0.007,0.341,0.000,1,1,1,1,0.002,0.007,0.054,0.315,0.002,0.002,-0.001,-0.001,0.315,0.002,0.000,0
20260703_212530,case01_boxes_2layer,6,213.5,1.000,9.551,618.329,-1.419,741.685,-10.109,0.000,0.967,36.559,0.166,0.000,-0.020,-0.167,-0.004,0.000,0.005,0.028,-84.467,-0.002,-0.002,-0.011,0.000,0.000,0.000,0.000,0.008,-0.005,-0.217,-0.007,0.332,0.000,1,1,1,1,-0.003,-0.008,0.040,-0.247,0.002,0.002,-0.001,-0.001,0.247,0.002,0.000,0
20260703_212530,case01_boxes_2layer,6,213.5,1.000,9.656,617.272,-1.419,741.786,-10.129,0.000,0.968,36.632,-0.203,0.000,0.016,0.204,-0.003,0.000,0.005,0.027,-84.468,-0.004,-0.003,-0.013,0.000,0.000,0.000,0.000,0.000,0.000,-0.215,-0.007,0.329,0.000,1,1,1,1,-0.003,-0.007,0.040,-0.246,0.002,0.002,-0.001,-0.001,0.246,0.002,0.000,0
20260703_212530,case01_boxes_2layer,6,213.5,1.000,9.760,616.216,-1.419,741.887,-10.149,0.000,0.970,36.703,-0.196,0.000,0.015,0.197,-0.004,0.000,0.004,0.027,-84.470,-0.004,-0.003,-0.016,0.000,0.000,0.000,0.000,0.000,0.000,-0.212,-0.007,0.326,0.000,1,1,1,1,-0.003,-0.007,0.040,-0.246,0.002,0.002,-0.001,-0.001,0.246,0.002,0.000,0
20260703_212530,case01_boxes_2layer,6,213.5,1.000,9.864,615.156,-1.419,741.989,-10.209,0.000,0.975,36.921,-0.603,0.000,0.054,0.605,-0.005,0.000,0.004,0.027,-84.472,-0.005,-0.002,-0.021,0.000,-0.001,0.000,0.001,-0.009,0.005,-0.218,-0.007,0.329,0.000,1,1,1,1,0.002,0.007,0.052,0.311,0.002,0.002,-0.001,-0.001,0.311,0.002,0.000,0
20260703_212530,case01_boxes_2layer,6,213.5,1.000,9.975,614.016,-1.419,742.097,-10.190,0.000,0.973,36.850,0.195,0.000,-0.024,-0.197,-0.005,0.000,0.003,0.027,-84.474,-0.005,-0.002,-0.025,0.000,0.000,0.000,0.000,0.008,-0.005,-0.220,-0.007,0.321,0.000,1,1,1,1,-0.003,-0.007,0.039,-0.246,0.002,0.002,-0.001,-0.001,0.246,0.002,0.000,0
20260703_212530,case01_boxes_2layer,6,213.5,1.000,10.080,612.951,-1.419,742.199,-10.207,0.000,0.974,36.913,-0.175,0.000,0.012,0.175,-0.005,0.000,0.003,0.026,-84.477,-0.005,-0.003,-0.024,0.000,0.000,0.000,0.000,0.000,0.000,-0.219,-0.007,0.318,0.000,1,1,1,1,-0.003,-0.007,0.039,-0.246,0.002,0.002,-0.001,-0.001,0.246,0.002,0.000,0
20260703_212530,case01_boxes_2layer,6,213.5,1.000,10.187,611.849,-1.419,742.304,-10.265,0.000,0.979,37.122,-0.579,0.000,0.050,0.581,-0.006,0.000,0.002,0.026,-84.480,-0.005,-0.001,-0.030,0.000,-0.001,0.000,0.000,-0.009,0.005,-0.222,-0.007,0.321,0.000,1,1,1,1,0.002,0.007,0.051,0.308,0.002,0.002,-0.001,-0.001,0.308,0.002,0.000,0
20260703_212530,case01_boxes_2layer,6,213.5,1.000,10.292,610.778,-1.419,742.406,-10.244,0.000,0.976,37.044,0.215,0.000,-0.027,-0.217,-0.006,0.000,0.002,0.026,-84.483,-0.004,-0.002,-0.031,0.000,0.000,0.000,-0.001,0.008,-0.005,-0.225,-0.008,0.312,0.000,1,1,1,1,-0.003,-0.007,0.038,-0.246,0.002,0.002,-0.001,-0.001,0.246,0.002,0.000,0
20260703_212530,case01_boxes_2layer,6,213.5,1.000,10.399,609.673,-1.419,742.512,-10.259,0.000,0.977,37.101,-0.156,0.000,0.008,0.156,-0.007,0.000,0.002,0.026,-84.486,-0.003,-0.003,-0.032,0.000,0.000,0.000,0.000,-0.001,0.000,-0.228,-0.008,0.310,0.000,1,1,1,1,-0.003,-0.007,0.038,-0.245,0.002,0.002,-0.001,-0.001,0.245,0.002,0.000,0
20260703_212530,case01_boxes_2layer,6,213.5,1.000,10.512,608.517,-1.419,742.622,-10.277,0.000,0.978,37.166,-0.180,0.000,0.008,0.180,-0.009,0.000,0.001,0.026,-84.490,-0.002,-0.001,-0.042,0.000,0.000,0.000,0.000,-0.001,0.000,-0.238,-0.008,0.308,0.000,1,1,1,1,-0.003,-0.007,0.037,-0.245,0.002,0.002,-0.001,-0.001,0.245,0.002,0.000,0
20260703_212530,case01_boxes_2layer,6,213.5,1.000,10.619,607.407,-1.419,742.727,-10.292,0.000,0.978,37.218,-0.145,0.000,0.006,0.145,-0.008,0.000,0.001,0.025,-84.494,-0.001,-0.003,-0.040,0.000,0.000,0.000,0.000,0.000,0.000,-0.235,-0.008,0.306,0.000,1,1,1,1,-0.003,-0.007,0.037,-0.245,0.002,0.002,-0.001,-0.001,0.245,0.002,0.000,0
20260703_212530,case01_boxes_2layer,6,213.5,1.000,10.720,606.374,-1.419,742.825,-10.306,0.000,0.979,37.268,-0.140,0.000,0.006,0.140,-0.008,0.000,0.001,0.025,-84.498,0.000,-0.002,-0.041,0.000,0.000,0.000,0.000,0.000,0.000,-0.232,-0.008,0.303,0.000,1,1,1,1,-0.003,-0.007,0.037,-0.245,0.002,0.002,-0.001,-0.001,0.245,0.002,0.000,0
20260703_212530,case01_boxes_2layer,6,213.5,1.000,10.820,605.338,-1.419,742.923,-10.319,0.000,0.979,37.316,-0.135,0.000,0.006,0.135,-0.007,0.000,0.001,0.025,-84.503,0.001,-0.002,-0.043,0.000,0.000,0.000,0.000,0.000,0.000,-0.227,-0.008,0.302,0.000,1,1,1,1,-0.003,-0.007,0.037,-0.245,0.001,0.001,-0.001,-0.001,0.245,0.001,0.000,0
20260703_212530,case01_boxes_2layer,6,213.5,1.000,10.927,604.224,-1.419,743.029,-10.373,0.000,0.984,37.509,-0.533,0.000,0.042,0.534,-0.009,0.000,0.001,0.025,-84.508,0.002,-0.001,-0.049,0.000,-0.001,0.000,0.000,-0.009,0.005,-0.229,-0.008,0.305,0.000,1,1,1,1,0.002,0.007,0.048,0.303,0.002,0.002,-0.001,-0.001,0.303,0.002,0.000,0
20260703_212530,case01_boxes_2layer,6,213.5,1.000,11.028,603.185,-1.419,743.128,-10.385,0.000,0.984,37.553,-0.125,0.000,0.002,0.124,-0.010,0.000,0.002,0.025,-84.512,0.002,-0.002,-0.046,0.000,-0.001,0.000,0.000,0.000,0.000,-0.257,-0.008,0.303,0.000,1,1,1,1,0.002,0.006,0.048,0.302,0.003,0.003,-0.001,-0.001,0.302,0.003,0.000,0
20260703_212530,case01_boxes_2layer,6,213.5,1.000,11.128,602.145,-1.419,743.226,-10.397,0.000,0.984,37.597,-0.121,0.000,0.002,0.120,-0.009,0.000,0.002,0.025,-84.517,0.003,-0.002,-0.049,0.000,-0.001,0.000,0.000,0.000,0.000,-0.257,-0.009,0.302,0.000,1,1,1,1,0.002,0.006,0.048,0.302,0.003,0.003,-0.001,-0.001,0.302,0.003,0.000,0
20260703_212530,case01_boxes_2layer,6,213.5,1.000,11.231,601.072,-1.419,743.328,-10.371,0.000,0.980,37.502,0.261,0.000,-0.037,-0.263,-0.012,0.000,0.002,0.024,-84.523,0.004,-0.001,-0.054,0.000,-0.001,0.000,-0.001,0.008,-0.005,-0.263,-0.009,0.294,0.000,1,1,1,1,-0.003,-0.007,0.036,-0.244,0.002,0.002,-0.001,-0.001,0.244,0.002,0.000,0
20260703_212530,case01_boxes_2layer,6,213.5,1.000,11.339,599.948,-1.419,743.434,-10.382,0.000,0.980,37.542,-0.112,0.000,0.000,0.112,-0.011,0.000,0.003,0.024,-84.528,0.005,-0.003,-0.057,0.000,-0.001,0.000,0.000,-0.001,0.000,-0.261,-0.009,0.292,0.000,1,1,1,1,-0.003,-0.007,0.036,-0.244,0.002,0.002,-0.001,-0.001,0.244,0.002,0.000,0
20260703_212530,case01_boxes_2layer,6,213.5,1.000,11.448,598.822,-1.419,743.540,-10.433,0.000,0.984,37.725,-0.507,0.000,0.036,0.508,-0.013,0.000,0.003,0.024,-84.535,0.005,0.000,-0.064,0.000,-0.001,0.000,0.000,-0.009,0.005,-0.266,-0.009,0.296,0.000,1,1,1,1,0.002,0.006,0.047,0.300,0.003,0.003,-0.001,-0.001,0.300,0.003,0.000,0
20260703_212530,case01_boxes_2layer,6,213.5,1.000,11.551,597.743,-1.419,743.642,-10.406,0.000,0.980,37.626,0.273,0.000,-0.040,-0.276,-0.014,0.000,0.004,0.024,-84.541,0.005,-0.001,-0.063,0.000,-0.001,0.000,-0.001,0.008,-0.005,-0.272,-0.009,0.289,0.000,1,1,1,1,-0.003,-0.007,0.035,-0.243,0.002,0.002,-0.001,-0.001,0.243,0.002,0.000,0
20260703_212530,case01_boxes_2layer,6,213.5,1.000,11.651,596.700,-1.419,743.740,-10.416,0.000,0.980,37.662,-0.100,0.000,-0.003,0.100,-0.013,0.000,0.004,0.024,-84.547,0.005,-0.001,-0.064,0.000,-0.001,0.000,0.000,-0.001,0.000,-0.269,-0.009,0.288,0.000,1,1,1,1,-0.003,-0.007,0.035,-0.243,0.002,0.002,-0.001,-0.001,0.243,0.002,0.000,0
20260703_212530,case01_boxes_2layer,6,213.5,1.000,11.759,595.570,-1.419,743.846,-10.425,0.000,0.979,37.696,-0.097,0.000,-0.003,0.096,-0.012,0.000,0.005,0.024,-84.554,0.005,-0.002,-0.070,0.000,-0.001,0.000,0.000,0.000,0.000,-0.266,-0.009,0.286,0.000,1,1,1,1,-0.003,-0.006,0.035,-0.243,0.002,0.002,-0.001,-0.001,0.243,0.002,0.000,0
20260703_212530,case01_boxes_2layer,6,213.5,1.000,11.860,594.523,-1.419,743.945,-10.435,0.000,0.979,37.730,-0.094,0.000,-0.004,0.093,-0.013,0.000,0.005,0.024,-84.561,0.005,-0.001,-0.069,0.000,-0.001,0.000,0.000,0.000,0.000,-0.260,-0.009,0.285,0.000,1,1,1,1,-0.003,-0.006,0.035,-0.243,0.002,0.002,-0.001,-0.001,0.243,0.002,0.000,0
20260703_212530,case01_boxes_2layer,6,213.5,1.000,11.968,593.394,-1.419,744.050,-10.483,0.000,0.982,37.905,-0.485,0.000,0.032,0.486,-0.014,0.000,0.006,0.023,-84.569,0.005,0.000,-0.077,0.000,-0.002,0.000,0.001,-0.008,0.005,-0.260,-0.009,0.289,0.000,1,1,1,1,0.002,0.006,0.046,0.297,0.002,0.002,-0.001,-0.001,0.297,0.002,0.000,0
20260703_212530,case01_boxes_2layer,6,213.5,1.000,12.068,592.347,-1.419,744.148,-10.492,0.000,0.982,37.935,-0.087,0.000,-0.005,0.086,-0.013,0.000,0.006,0.023,-84.576,0.004,-0.001,-0.071,0.000,-0.002,0.000,0.000,0.000,0.000,-0.256,-0.009,0.288,0.000,1,1,1,1,0.002,0.006,0.046,0.296,0.002,0.002,-0.001,-0.001,0.296,0.002,0.000,0
20260703_212530,case01_boxes_2layer,6,213.5,1.000,12.175,591.216,-1.419,744.254,-10.462,0.000,0.977,37.829,0.293,0.000,-0.043,-0.296,-0.015,0.000,0.007,0.023,-84.584,0.003,-0.002,-0.077,0.000,-0.001,0.000,0.000,0.008,-0.005,-0.262,-0.009,0.281,0.000,1,1,1,1,-0.003,-0.006,0.034,-0.242,0.002,0.002,-0.001,-0.001,0.242,0.002,0.000,0
20260703_212530,case01_boxes_2layer,6,213.5,1.000,12.276,590.166,-1.419,744.352,-10.471,0.000,0.977,37.858,-0.081,0.000,-0.008,0.080,-0.015,0.000,0.007,0.023,-84.591,0.003,-0.001,-0.074,0.000,-0.001,0.000,0.000,0.000,0.000,-0.289,-0.009,0.280,0.000,1,1,1,1,-0.003,-0.006,0.034,-0.242,0.002,0.002,-0.001,-0.001,0.242,0.002,0.000,0
20260703_212530,case01_boxes_2layer,6,213.5,1.000,12.384,589.034,-1.419,744.458,-10.518,0.000,0.979,38.027,-0.470,0.000,0.027,0.471,-0.018,0.000,0.007,0.023,-84.600,0.003,-0.001,-0.083,0.000,-0.002,0.000,0.001,-0.009,0.005,-0.295,-0.009,0.284,0.000,1,1,1,1,0.002,0.006,0.045,0.295,0.003,0.003,-0.001,-0.001,0.295,0.003,0.000,0
20260703_212530,case01_boxes_2layer,6,213.5,1.000,12.491,587.902,-1.419,744.563,-10.487,0.000,0.975,37.917,0.302,0.000,-0.046,-0.305,-0.018,0.000,0.007,0.023,-84.608,0.002,0.000,-0.088,0.000,-0.001,0.000,0.000,0.008,-0.005,-0.299,-0.009,0.277,0.000,1,1,1,1,-0.003,-0.006,0.034,-0.242,0.002,0.002,-0.001,-0.001,0.242,0.002,0.000,0
20260703_212530,case01_boxes_2layer,6,213.5,1.000,12.595,586.809,-1.419,744.664,-10.495,0.000,0.973,37.943,-0.073,0.000,-0.014,0.071,-0.020,0.000,0.007,0.023,-84.617,0.002,-0.002,-0.088,0.000,-0.001,0.000,0.000,-0.001,0.000,-0.334,-0.010,0.276,0.000,1,1,1,1,-0.003,-0.006,0.034,-0.242,0.002,0.002,-0.001,-0.001,0.242,0.002,0.000,0
20260703_212530,case01_boxes_2layer,6,213.5,1.000,12.707,585.632,-1.419,744.773,-10.541,0.000,0.975,38.109,-0.460,0.000,0.020,0.460,-0.024,0.000,0.008,0.023,-84.627,0.002,-0.001,-0.103,0.000,-0.002,0.000,0.000,-0.009,0.005,-0.331,-0.011,0.281,0.000,1,1,1,1,0.002,0.006,0.045,0.294,0.003,0.003,-0.001,-0.001,0.294,0.003,0.000,0
20260703_212530,case01_boxes_2layer,6,213.5,1.000,12.820,584.450,-1.419,744.882,-10.510,0.000,0.970,37.996,0.309,0.000,-0.052,-0.313,-0.023,0.000,0.008,0.023,-84.638,0.003,-0.002,-0.110,0.000,-0.001,0.000,-0.001,0.007,-0.005,-0.330,-0.011,0.274,0.000,1,1,1,1,-0.003,-0.006,0.033,-0.242,0.002,0.002,0.000,0.000,0.242,0.002,0.000,0
20260703_212530,case01_boxes_2layer,6,213.5,1.000,12.927,583.316,-1.419,744.987,-10.555,0.000,0.972,38.159,-0.454,0.000,0.020,0.454,-0.023,0.000,0.008,0.023,-84.650,0.003,0.000,-0.114,0.000,-0.002,0.000,0.001,-0.009,0.005,-0.324,-0.011,0.279,0.000,1,1,1,1,0.002,0.006,0.044,0.293,0.003,0.003,-0.001,-0.001,0.293,0.003,0.000,0
20260703_212530,case01_boxes_2layer,6,213.5,1.000,13.031,582.219,-1.419,745.088,-10.524,0.000,0.967,38.045,0.314,0.000,-0.051,-0.317,-0.021,0.000,0.009,0.023,-84.661,0.002,-0.001,-0.112,0.000,-0.001,0.000,0.000,0.008,-0.005,-0.321,-0.011,0.272,0.000,1,1,1,1,-0.002,-0.006,0.033,-0.241,0.002,0.002,0.000,0.000,0.241,0.002,0.000,0
20260703_212530,case01_boxes_2layer,6,213.5,1.000,13.135,581.121,-1.419,745.188,-10.530,0.000,0.966,38.066,-0.060,0.000,-0.012,0.058,-0.017,0.000,0.009,0.022,-84.672,0.002,-0.002,-0.110,0.000,-0.001,0.000,0.000,0.000,0.000,-0.305,-0.010,0.271,0.000,1,1,1,1,-0.002,-0.006,0.033,-0.241,0.002,0.002,0.000,0.000,0.241,0.002,0.000,0
20260703_212530,case01_boxes_2layer,6,213.5,1.000,13.243,579.981,-1.419,745.293,-10.574,0.000,0.968,38.227,-0.445,0.000,0.022,0.445,-0.019,0.000,0.009,0.022,-84.683,0.001,-0.001,-0.114,0.000,-0.002,0.000,0.001,-0.008,0.005,-0.304,-0.010,0.276,0.000,1,1,1,1,0.002,0.006,0.044,0.292,0.002,0.002,-0.001,-0.001,0.292,0.002,0.000,0
20260703_212530,case01_boxes_2layer,6,213.5,1.000,13.347,578.883,-1.419,745.393,-10.580,0.000,0.967,38.246,-0.056,0.000,-0.013,0.054,-0.018,0.000,0.009,0.022,-84.694,0.000,0.000,-0.110,0.000,-0.002,0.000,0.000,0.000,0.000,-0.298,-0.010,0.275,0.000,1,1,1,1,0.002,0.006,0.044,0.292,0.002,0.002,-0.001,-0.001,0.292,0.002,0.000,0
20260703_212530,case01_boxes_2layer,6,213.5,1.000,13.455,577.742,-1.419,745.497,-10.548,0.000,0.962,38.129,0.323,0.000,-0.050,-0.326,-0.020,0.000,0.009,0.022,-84.705,0.000,-0.001,-0.111,0.000,-0.001,0.000,0.000,0.008,-0.005,-0.297,-0.010,0.269,0.000,1,1,1,1,-0.002,-0.006,0.033,-0.241,0.002,0.002,0.000,0.000,0.241,0.002,0.000,0
20260703_212530,case01_boxes_2layer,6,213.5,1.000,13.564,576.598,-1.419,745.601,-10.591,0.000,0.964,38.287,-0.438,0.000,0.020,0.438,-0.021,0.000,0.009,0.022,-84.717,-0.001,-0.001,-0.111,0.000,-0.002,0.000,0.001,-0.008,0.005,-0.297,-0.010,0.273,0.000,1,1,1,1,0.002,0.006,0.044,0.291,0.002,0.002,-0.001,-0.001,0.291,0.002,0.000,0
20260703_212530,case01_boxes_2layer,6,213.5,1.000,13.667,575.501,-1.419,745.701,-10.596,0.000,0.962,38.304,-0.050,0.000,-0.015,0.048,-0.019,0.000,0.009,0.022,-84.727,-0.001,0.000,-0.107,0.000,-0.002,0.000,0.000,0.000,0.000,-0.293,-0.010,0.273,0.000,1,1,1,1,0.002,0.006,0.044,0.291,0.002,0.002,-0.001,-0.001,0.291,0.002,0.000,0
20260703_212530,case01_boxes_2layer,6,213.5,1.000,13.771,574.403,-1.419,745.801,-10.564,0.000,0.957,38.185,0.328,0.000,-0.053,-0.331,-0.023,0.000,0.009,0.022,-84.738,-0.001,0.000,-0.108,0.000,-0.001,0.000,0.000,0.008,-0.005,-0.295,-0.010,0.266,0.000,1,1,1,1,-0.002,-0.006,0.033,-0.241,0.002,0.002,0.000,0.000,0.241,0.002,0.000,0
20260703_212530,case01_boxes_2layer,6,213.5,1.000,13.879,573.258,-1.419,745.904,-10.568,0.000,0.955,38.201,-0.046,0.000,-0.017,0.045,-0.021,0.000,0.008,0.022,-84.749,-0.001,-0.002,-0.112,0.000,-0.001,0.000,0.000,0.000,0.000,-0.325,-0.010,0.266,0.000,1,1,1,1,-0.002,-0.006,0.033,-0.240,0.002,0.002,0.000,0.000,0.240,0.002,0.000,0
20260703_212530,case01_boxes_2layer,6,213.5,1.000,13.988,572.111,-1.419,746.008,-10.611,0.000,0.957,38.355,-0.430,0.000,0.017,0.429,-0.022,0.000,0.008,0.022,-84.761,-0.001,0.000,-0.117,0.000,-0.002,0.000,0.000,-0.008,0.005,-0.325,-0.010,0.271,0.000,1,1,1,1,0.002,0.006,0.043,0.290,0.003,0.003,-0.001,-0.001,0.290,0.003,0.000,0
20260703_212530,case01_boxes_2layer,6,213.5,1.000,14.096,570.967,-1.419,746.111,-10.578,0.000,0.951,38.234,0.333,0.000,-0.054,-0.336,-0.023,0.000,0.008,0.022,-84.773,-0.001,-0.001,-0.116,0.000,-0.002,0.000,-0.001,0.008,-0.005,-0.332,-0.011,0.264,0.000,1,1,1,1,-0.002,-0.006,0.032,-0.240,0.002,0.002,0.000,0.000,0.240,0.002,0.000,0
20260703_212530,case01_boxes_2layer,6,213.5,1.000,14.200,569.866,-1.419,746.210,-10.582,0.000,0.950,38.248,-0.042,0.000,-0.018,0.040,-0.022,0.000,0.008,0.022,-84.784,0.000,-0.001,-0.114,0.000,-0.002,0.000,0.000,0.000,0.000,-0.325,-0.011,0.264,0.000,1,1,1,1,-0.002,-0.006,0.032,-0.240,0.002,0.002,0.000,0.000,0.240,0.002,0.000,0
20260703_212530,case01_boxes_2layer,6,213.5,1.000,14.312,568.677,-1.419,746.316,-10.587,0.000,0.947,38.265,-0.048,0.000,-0.023,0.046,-0.027,0.000,0.008,0.022,-84.797,0.000,0.001,-0.129,0.000,-0.002,0.000,0.000,-0.001,0.000,-0.334,-0.011,0.263,0.000,1,1,1,1,-0.002,-0.006,0.032,-0.240,0.002,0.002,0.000,0.000,0.240,0.002,0.000,0
20260703_212530,case01_boxes_2layer,6,213.5,1.000,14.416,567.575,-1.419,746.415,-10.591,0.000,0.945,38.278,-0.039,0.000,-0.020,0.037,-0.024,0.000,0.008,0.022,-84.809,0.001,-0.001,-0.120,0.000,-0.002,0.000,0.000,-0.001,0.000,-0.335,-0.011,0.263,0.000,1,1,1,1,-0.002,-0.006,0.032,-0.240,0.002,0.002,0.000,0.000,0.240,0.002,0.000,0
20260703_212530,case01_boxes_2layer,6,213.5,1.000,14.520,566.471,-1.419,746.513,-10.594,0.000,0.943,38.291,-0.037,0.000,-0.020,0.035,-0.023,0.000,0.008,0.022,-84.821,0.001,-0.001,-0.124,0.000,-0.002,0.000,0.000,0.000,0.000,-0.329,-0.011,0.262,0.000,1,1,1,1,-0.002,-0.006,0.032,-0.240,0.002,0.002,0.000,0.000,0.240,0.002,0.000,0
20260703_212530,case01_boxes_2layer,6,213.5,1.000,14.623,565.371,-1.419,746.611,-10.636,0.000,0.945,38.442,-0.419,0.000,0.012,0.418,-0.026,0.000,0.009,0.022,-84.834,0.002,0.000,-0.127,0.000,-0.003,0.000,0.000,-0.008,0.005,-0.330,-0.011,0.267,0.000,1,1,1,1,0.002,0.006,0.043,0.289,0.002,0.002,-0.001,-0.001,0.289,0.002,0.000,0
20260703_212530,case01_boxes_2layer,6,213.5,1.000,14.731,564.223,-1.419,746.712,-10.602,0.000,0.939,38.318,0.341,0.000,-0.058,-0.345,-0.027,0.000,0.009,0.022,-84.848,0.002,0.000,-0.136,0.000,-0.002,0.000,-0.001,0.007,-0.005,-0.331,-0.011,0.261,0.000,1,1,1,1,-0.002,-0.006,0.032,-0.240,0.002,0.002,0.000,0.000,0.240,0.002,0.000,0
20260703_212530,case01_boxes_2layer,6,213.5,1.000,14.835,563.119,-1.419,746.810,-10.606,0.000,0.937,38.329,-0.034,0.000,-0.022,0.032,-0.025,0.000,0.009,0.022,-84.861,0.002,-0.001,-0.132,0.000,-0.002,0.000,0.000,0.000,0.000,-0.330,-0.011,0.260,0.000,1,1,1,1,-0.002,-0.006,0.032,-0.240,0.002,0.002,0.000,0.000,0.240,0.002,0.000,0
20260703_212530,case01_boxes_2layer,6,213.5,1.000,14.943,561.970,-1.419,746.911,-10.647,0.000,0.937,38.478,-0.415,0.000,0.008,0.414,-0.029,0.000,0.009,0.021,-84.875,0.003,-0.001,-0.141,0.000,-0.003,0.000,0.000,-0.009,0.005,-0.370,-0.011,0.266,0.000,1,1,1,1,0.002,0.006,0.043,0.288,0.003,0.003,-0.001,-0.001,0.288,0.003,0.000,0
20260703_212530,case01_boxes_2layer,6,213.5,1.000,15.051,560.822,-1.419,747.012,-10.613,0.000,0.931,38.353,0.344,0.000,-0.060,-0.348,-0.029,0.000,0.010,0.021,-84.890,0.003,0.000,-0.146,0.000,-0.002,0.000,-0.001,0.007,-0.005,-0.371,-0.011,0.260,0.000,1,1,1,1,-0.002,-0.006,0.032,-0.240,0.002,0.002,0.000,0.000,0.240,0.002,0.000,0
20260703_212530,case01_boxes_2layer,6,213.5,1.000,15.160,559.671,-1.419,747.113,-10.616,0.000,0.929,38.363,-0.030,0.000,-0.024,0.028,-0.027,0.000,0.010,0.021,-84.904,0.003,-0.002,-0.146,0.000,-0.002,0.000,0.000,0.000,0.000,-0.366,-0.012,0.259,0.000,1,1,1,1,-0.002,-0.006,0.032,-0.239,0.002,0.002,0.000,0.000,0.239,0.002,0.000,0
20260703_212530,case01_boxes_2layer,6,213.5,1.000,15.260,558.607,-1.419,747.206,-10.619,0.000,0.926,38.372,-0.029,0.000,-0.024,0.027,-0.027,0.000,0.010,0.021,-84.918,0.003,0.000,-0.140,0.000,-0.002,0.000,0.000,0.000,0.000,-0.362,-0.012,0.259,0.000,1,1,1,1,-0.002,-0.006,0.032,-0.239,0.002,0.002,0.000,0.000,0.239,0.002,0.000,0
20260703_212530,case01_boxes_2layer,6,213.5,1.000,15.363,557.506,-1.419,747.302,-10.660,0.000,0.927,38.520,-0.410,0.000,0.006,0.408,-0.031,0.000,0.011,0.021,-84.933,0.004,0.000,-0.148,0.000,-0.003,0.000,0.000,-0.009,0.005,-0.362,-0.012,0.264,0.000,1,1,1,1,0.002,0.006,0.042,0.287,0.003,0.003,-0.001,-0.001,0.287,0.003,0.000,0
20260703_212530,case01_boxes_2layer,6,213.5,1.000,15.463,556.439,-1.419,747.394,-10.662,0.000,0.924,38.529,-0.027,0.000,-0.026,0.025,-0.029,0.000,0.011,0.021,-84.948,0.003,0.000,-0.146,0.000,-0.003,0.000,0.000,0.000,0.000,-0.354,-0.012,0.263,0.000,1,1,1,1,0.002,0.006,0.042,0.287,0.002,0.002,-0.001,-0.001,0.287,0.002,0.000,0
20260703_212530,case01_boxes_2layer,6,213.5,1.000,15.575,555.247,-1.419,747.498,-10.627,0.000,0.918,38.401,0.349,0.000,-0.061,-0.353,-0.031,0.000,0.011,0.021,-84.964,0.004,0.000,-0.165,0.000,-0.002,0.000,0.000,0.008,-0.005,-0.354,-0.012,0.258,0.000,1,1,1,1,-0.002,-0.006,0.032,-0.239,0.002,0.002,0.000,0.000,0.239,0.002,0.000,0
20260703_212530,case01_boxes_2layer,6,213.5,1.000,15.675,554.182,-1.419,747.589,-10.630,0.000,0.916,38.410,-0.026,0.000,-0.026,0.023,-0.028,0.000,0.012,0.021,-84.979,0.003,0.000,-0.149,0.000,-0.002,0.000,0.000,0.000,0.000,-0.387,-0.012,0.257,0.000,1,1,1,1,-0.002,-0.006,0.031,-0.239,0.002,0.002,0.000,0.000,0.239,0.002,0.000,0
20260703_212530,case01_boxes_2layer,6,213.5,1.000,15.776,553.116,-1.419,747.681,-10.632,0.000,0.913,38.418,-0.025,0.000,-0.027,0.022,-0.029,0.000,0.012,0.021,-84.994,0.003,0.000,-0.150,0.000,-0.002,0.000,0.000,0.000,0.000,-0.380,-0.013,0.257,0.000,1,1,1,1,-0.002,-0.006,0.031,-0.239,0.002,0.002,0.000,0.000,0.239,0.002,0.000,0
20260703_212530,case01_boxes_2layer,6,213.5,1.000,15.888,551.923,-1.419,747.783,-10.673,0.000,0.913,38.563,-0.404,0.000,0.003,0.403,-0.032,0.000,0.012,0.021,-85.011,0.003,0.000,-0.171,0.000,-0.003,0.000,0.001,-0.008,0.005,-0.379,-0.013,0.262,0.000,1,1,1,1,0.002,0.006,0.042,0.286,0.003,0.003,-0.001,-0.001,0.286,0.003,0.000,0
20260703_212530,case01_boxes_2layer,6,213.5,1.000,15.988,550.856,-1.419,747.874,-10.675,0.000,0.911,38.570,-0.023,0.000,-0.028,0.021,-0.030,0.000,0.012,0.021,-85.027,0.002,0.000,-0.154,0.000,-0.003,0.000,0.000,0.000,0.000,-0.374,-0.013,0.262,0.000,1,1,1,1,0.002,0.006,0.042,0.286,0.003,0.003,-0.001,-0.001,0.286,0.003,0.000,0
20260703_212530,case01_boxes_2layer,6,213.5,1.000,16.100,549.662,-1.419,747.976,-10.640,0.000,0.904,38.442,0.353,0.000,-0.064,-0.357,-0.033,0.000,0.013,0.021,-85.044,0.002,-0.001,-0.173,0.000,-0.002,0.000,0.000,0.008,-0.005,-0.374,-0.013,0.256,0.000,1,1,1,1,-0.002,-0.006,0.031,-0.239,0.002,0.002,0.000,0.000,0.239,0.002,0.000,0
20260703_212530,case01_boxes_2layer,6,213.5,1.000,16.207,548.513,-1.419,748.073,-10.680,0.000,0.904,38.586,-0.401,0.000,0.000,0.400,-0.034,0.000,0.013,0.021,-85.061,0.002,0.001,-0.173,0.000,-0.003,0.000,0.000,-0.008,0.005,-0.373,-0.013,0.261,0.000,1,1,1,1,0.002,0.006,0.042,0.286,0.002,0.002,-0.001,-0.001,0.286,0.002,0.000,0
20260703_212530,case01_boxes_2layer,6,213.5,1.000,16.320,547.321,-1.223,748.172,-10.423,-0.131,0.833,37.644,2.574,-1.310,-0.709,-2.651,-0.469,-1.263,-0.717,-1.140,-85.047,-7.301,-11.607,0.141,0.009,-0.015,-0.033,0.088,-0.113,-0.333,-0.682,-0.024,0.280,0.000,1,1,1,1,-0.034,-1.038,0.128,0.045,0.000,0.038,0.003,0.003,1.038,0.038,0.018,0
20260703_212530,case01_boxes_2layer,6,213.5,1.000,16.431,546.178,-1.196,748.264,-10.171,-0.471,0.821,36.773,2.520,-3.400,-0.121,-2.622,0.138,-3.322,-0.736,-1.710,-85.096,-0.189,-5.708,-0.493,-0.013,-0.012,-0.027,-0.220,0.028,0.063,-0.601,-0.019,0.327,0.000,0,1,1,1,0.000,0.071,0.050,0.009,0.000,0.018,0.000,0.000,0.071,0.018,0.000,0
20260703_212530,case01_boxes_2layer,6,213.5,1.000,16.531,545.165,-1.263,748.346,-10.095,-0.804,0.819,36.576,0.757,-3.330,-0.022,-0.857,0.082,-3.305,-0.698,-1.733,-85.148,0.385,-0.227,-0.516,-0.002,-0.007,0.019,0.107,0.049,0.453,-0.496,-0.014,0.329,0.000,0,0,1,1,0.000,0.000,0.029,-0.262,0.000,0.000,0.000,0.000,0.262,0.000,0.000,0
20260703_212530,case01_boxes_2layer,6,213.5,1.000,16.639,544.073,-1.358,748.434,-10.105,-0.924,0.820,36.648,-0.098,-1.198,0.008,0.067,0.015,-1.200,-0.690,-1.484,-85.188,0.081,2.493,-0.402,0.007,-0.005,0.062,0.093,0.019,0.431,-0.374,-0.012,0.324,0.000,0,0,1,1,0.000,0.000,0.009,-0.361,0.000,0.000,0.000,0.000,0.361,0.000,0.000,0
20260703_212530,case01_boxes_2layer,6,213.5,1.000,16.739,543.060,-1.454,748.516,-10.124,-0.900,0.820,36.710,-0.196,0.243,0.004,0.200,-0.016,0.239,-0.717,-0.989,-85.214,-0.273,4.944,-0.257,0.014,-0.003,0.100,0.075,0.016,0.388,-0.324,-0.011,0.324,0.000,0,1,1,1,0.000,0.122,-0.016,-0.246,0.000,0.000,0.000,0.000,0.246,0.000,0.000,0
20260703_212530,case01_boxes_2layer,6,213.5,1.000,16.839,542.046,-1.508,748.598,-10.149,-0.205,0.823,36.664,-0.248,6.945,0.025,0.299,-0.086,6.942,-0.740,-0.411,-85.235,-0.233,5.785,-0.211,0.011,-0.004,0.096,-0.032,-0.004,-0.047,-0.344,-0.010,0.330,0.000,1,1,1,1,-0.001,0.311,0.028,-0.383,0.001,0.001,0.000,0.000,0.383,0.001,0.000,0
20260703_212530,case01_boxes_2layer,6,213.5,1.000,16.939,541.030,-1.508,748.680,-10.179,0.178,0.823,36.770,-0.301,3.828,0.006,0.297,-0.069,3.828,-0.761,0.058,-85.254,-0.207,4.689,-0.196,0.009,-0.003,0.068,-0.018,0.004,-0.274,-0.308,-0.010,0.329,0.000,1,1,1,1,0.000,0.316,0.046,-0.250,0.001,0.001,0.000,0.000,0.316,0.001,0.000,0
20260703_212530,case01_boxes_2layer,6,213.5,1.000,17.048,539.929,-1.475,748.769,-10.202,0.386,0.824,36.872,-0.225,2.082,0.012,0.211,-0.035,2.084,-0.776,0.380,-85.273,-0.151,3.223,-0.186,0.004,-0.003,0.038,-0.054,0.008,-0.308,-0.274,-0.009,0.324,0.000,1,1,1,1,0.000,-0.273,0.058,0.279,0.000,0.000,0.000,0.000,0.279,0.000,0.000,0
20260703_212530,case01_boxes_2layer,6,213.5,1.000,17.159,538.786,-1.431,748.861,-10.227,0.376,0.828,36.963,-0.253,-0.096,0.039,0.256,0.020,-0.094,-0.763,0.531,-85.289,0.134,1.510,-0.161,-0.004,-0.002,0.013,-0.079,0.002,-0.250,-0.230,-0.008,0.321,0.000,1,1,1,1,0.000,0.192,0.069,-0.137,0.000,0.000,-0.001,-0.001,0.192,0.001,0.000,0
20260703_212530,case01_boxes_2layer,6,213.5,1.000,17.260,537.761,-1.400,748.945,-10.243,0.249,0.834,37.006,-0.155,-1.270,0.052,0.171,0.055,-1.268,-0.714,0.546,-85.300,0.482,0.145,-0.105,-0.012,-0.002,-0.004,-0.076,0.008,-0.162,-0.207,-0.006,0.318,0.000,1,1,1,1,0.000,0.052,0.070,-0.052,0.000,0.000,-0.001,-0.001,0.070,0.001,0.000,0
20260703_212530,case01_boxes_2layer,6,213.5,1.000,17.368,536.653,-1.383,749.035,-10.264,0.073,0.841,37.077,-0.219,-1.759,0.074,0.239,0.075,-1.756,-0.623,0.476,-85.307,0.911,-0.698,-0.070,-0.019,-0.001,-0.015,-0.072,0.006,-0.110,-0.181,-0.006,0.316,0.000,1,1,1,1,0.000,0.000,0.064,0.054,0.000,0.000,-0.002,-0.002,0.064,0.002,0.000,0
20260703_212530,case01_boxes_2layer,6,213.5,1.000,17.476,535.543,-1.384,749.127,-10.279,-0.067,0.848,37.133,-0.151,-1.402,0.072,0.165,0.072,-1.400,-0.500,0.356,-85.310,1.234,-1.204,-0.035,-0.024,0.000,-0.020,-0.047,0.005,-0.052,-0.177,-0.006,0.313,0.000,1,1,1,1,-0.001,-0.001,0.054,0.009,0.000,0.000,-0.002,-0.002,0.054,0.002,0.000,0
20260703_212530,case01_boxes_2layer,6,213.5,1.000,17.584,534.431,-1.395,749.220,-10.301,-0.137,0.855,37.216,-0.220,-0.702,0.067,0.227,0.053,-0.700,-0.358,0.217,-85.312,1.418,-1.390,-0.017,-0.025,0.000,-0.020,-0.019,0.001,-0.006,-0.197,-0.007,0.311,0.000,1,1,1,1,0.000,0.001,0.047,0.080,0.001,0.001,-0.002,-0.002,0.080,0.002,0.000,0
20260703_212530,case01_boxes_2layer,6,213.5,1.000,17.692,533.325,-1.199,749.309,-10.010,-0.143,0.734,36.135,2.918,-0.057,-1.206,-3.004,-0.968,-0.112,-0.912,0.757,-85.413,-5.539,5.401,-1.016,-0.018,0.000,0.022,0.079,0.000,0.422,-0.296,-0.011,0.341,0.000,1,1,1,1,0.014,0.005,0.157,-1.897,-0.005,-0.005,0.000,0.032,1.897,0.032,0.004,0
20260703_212530,case01_boxes_2layer,6,213.5,1.000,17.795,532.306,-1.062,749.388,-9.775,-0.508,0.743,35.337,2.351,-3.653,0.091,-2.245,0.342,-3.705,-1.014,1.435,-85.471,-1.023,6.784,-0.578,-0.031,-0.003,0.031,-0.132,-0.025,0.096,-0.236,-0.007,0.387,0.000,0,1,1,1,0.000,0.007,0.268,0.347,0.000,-0.003,0.031,0.004,0.347,0.031,0.000,0
20260703_212530,case01_boxes_2layer,6,213.5,1.000,17.896,531.329,-1.150,749.463,-9.698,-1.150,0.746,35.259,0.767,-6.422,0.030,-0.596,0.182,-6.438,-0.816,1.483,-85.475,1.985,0.475,-0.038,-0.036,0.000,-0.012,-0.054,0.025,-0.436,-0.112,-0.003,0.388,0.000,1,1,0,0,0.001,0.000,0.000,0.000,-0.004,-0.004,0.000,0.000,0.001,0.004,0.000,0
20260703_212530,case01_boxes_2layer,6,213.5,1.000,18.004,530.283,-1.298,749.545,-9.645,-1.563,0.756,35.280,0.528,-4.127,0.093,-0.432,0.178,-4.135,-0.598,1.203,-85.467,2.178,-2.798,0.078,-0.041,0.001,-0.075,-0.046,0.017,-0.627,-0.054,-0.002,0.388,0.000,1,1,0,0,0.001,0.003,0.000,0.000,-0.003,-0.003,0.000,0.000,0.003,0.003,0.000,0
20260703_212530,case01_boxes_2layer,6,213.5,1.000,18.112,529.233,-1.460,749.629,-9.781,-1.201,0.792,35.590,-1.360,3.614,0.362,1.347,0.228,3.630,-0.391,0.585,-85.450,2.072,-6.176,0.173,-0.037,0.005,-0.106,0.034,0.040,-0.312,-0.021,-0.002,0.362,0.000,1,1,1,1,-0.009,-0.134,-0.099,-0.204,0.002,0.002,-0.005,-0.005,0.204,0.005,0.000,0
20260703_212530,case01_boxes_2layer,6,213.5,1.000,18.212,528.246,-1.545,749.710,-9.794,-0.510,0.802,35.423,-0.128,6.910,0.102,0.138,0.061,6.910,-0.258,-0.023,-85.429,1.329,-6.077,0.212,-0.025,0.002,-0.099,0.121,-0.031,0.076,-0.114,-0.004,0.366,0.000,1,1,1,1,-0.012,-0.251,-0.257,-0.154,0.004,0.004,-0.002,-0.002,0.257,0.004,0.000,0
20260703_212530,case01_boxes_2layer,6,213.5,1.000,18.320,527.178,-1.520,749.798,-9.849,0.428,0.814,35.609,-0.550,9.386,0.118,0.621,0.059,9.382,-0.093,-0.390,-85.426,1.649,-3.679,0.024,-0.030,0.000,-0.040,-0.050,-0.017,0.585,-0.176,-0.006,0.365,0.000,1,1,1,1,-0.007,-0.011,-0.127,-0.260,0.002,0.002,-0.001,-0.001,0.260,0.002,0.000,0
20260703_212530,case01_boxes_2layer,6,213.5,1.000,18.427,526.115,-1.473,749.887,-9.939,0.420,0.821,35.933,-0.901,-0.085,0.076,0.903,0.004,-0.093,0.063,-0.551,-85.425,1.558,-1.609,0.011,-0.025,0.000,-0.010,0.050,-0.003,0.302,-0.252,-0.009,0.369,0.000,1,1,1,1,-0.003,0.005,0.084,0.393,0.004,0.004,-0.001,-0.001,0.393,0.004,0.000,0
20260703_212530,case01_boxes_2layer,6,213.5,1.000,18.527,525.121,-1.436,749.969,-9.966,0.306,0.821,36.015,-0.271,-1.140,-0.004,0.259,-0.029,-1.143,0.198,-0.547,-85.425,1.355,0.042,0.006,-0.022,0.000,0.014,0.032,-0.003,0.236,-0.351,-0.012,0.364,0.000,1,1,1,1,-0.005,0.004,0.056,0.333,0.006,0.006,-0.001,-0.001,0.333,0.006,0.000,0
20260703_212530,case01_boxes_2layer,6,213.5,1.000,18.639,524.006,-1.411,750.061,-9.956,0.164,0.814,35.965,0.100,-1.418,-0.067,-0.115,-0.068,-1.417,0.340,-0.410,-85.426,1.416,1.370,-0.015,-0.019,0.000,0.030,0.032,0.002,0.160,-0.454,-0.015,0.355,0.000,1,1,1,1,-0.005,-0.005,0.040,-0.234,0.006,0.006,0.000,0.000,0.234,0.006,0.000,0
20260703_212530,case01_boxes_2layer,6,213.5,1.000,18.739,523.006,-1.401,750.143,-9.985,0.068,0.808,36.064,-0.290,-0.957,-0.065,0.280,-0.096,-0.957,0.453,-0.227,-85.432,1.125,1.829,-0.060,-0.016,-0.001,0.035,0.032,-0.011,0.050,-0.565,-0.017,0.352,0.000,1,1,1,1,-0.003,-0.005,0.043,-0.212,0.006,0.006,0.000,0.000,0.212,0.006,0.000,0
20260703_212530,case01_boxes_2layer,6,213.5,1.000,18.851,521.885,-1.398,750.233,-10.018,0.009,0.797,36.179,-0.334,-0.589,-0.108,0.324,-0.140,-0.588,0.555,-0.021,-85.446,1.023,2.067,-0.139,-0.011,-0.003,0.030,0.044,-0.014,-0.045,-0.644,-0.019,0.348,0.000,1,1,1,1,-0.002,-0.005,0.045,-0.189,0.006,0.006,0.000,0.000,0.189,0.006,0.000,0
20260703_212530,case01_boxes_2layer,6,213.5,1.000,18.964,520.758,-1.399,750.322,-10.074,-0.006,0.788,36.376,-0.556,-0.158,-0.089,0.547,-0.134,-0.155,0.626,0.140,-85.467,0.713,1.601,-0.214,-0.007,-0.004,0.020,0.043,-0.017,-0.097,-0.674,-0.022,0.348,0.000,1,1,1,1,0.002,0.005,0.054,0.234,0.006,0.006,0.000,0.000,0.234,0.006,0.000,0
20260703_212530,case01_boxes_2layer,6,213.5,1.000,19.076,519.630,-1.400,750.410,-10.074,-0.008,0.775,36.372,0.002,-0.014,-0.133,-0.013,-0.132,-0.013,0.663,0.229,-85.495,0.373,0.897,-0.277,-0.003,-0.004,0.008,0.042,-0.002,-0.120,-0.680,-0.023,0.340,0.000,1,1,1,1,-0.002,-0.005,0.045,-0.172,0.005,0.005,0.000,0.000,0.172,0.005,0.000,0
20260703_212530,case01_boxes_2layer,6,213.5,1.000,19.187,518.501,-1.401,750.496,-10.126,-0.010,0.766,36.558,-0.525,-0.022,-0.086,0.517,-0.127,-0.019,0.668,0.250,-85.527,0.047,0.204,-0.322,0.001,-0.006,-0.001,0.040,-0.011,-0.096,-0.671,-0.022,0.341,0.000,1,1,1,1,0.002,0.005,0.053,0.240,0.004,0.004,0.000,0.000,0.240,0.004,0.000,0
20260703_212530,case01_boxes_2layer,6,213.5,1.000,19.300,517.367,-1.402,750.581,-10.120,-0.018,0.754,36.533,0.059,-0.079,-0.121,-0.068,-0.117,-0.078,0.644,0.217,-85.562,-0.245,-0.323,-0.345,0.005,-0.005,-0.008,0.036,0.004,-0.072,-0.653,-0.022,0.333,0.000,1,1,1,1,-0.002,-0.005,0.042,-0.201,0.003,0.003,0.000,0.000,0.201,0.003,0.000,0
20260703_212530,case01_boxes_2layer,6,213.5,1.000,19.412,516.229,-1.405,750.665,-10.143,-0.030,0.744,36.614,-0.231,-0.121,-0.098,0.223,-0.116,-0.119,0.594,0.156,-85.598,-0.493,-0.618,-0.358,0.009,-0.005,-0.012,0.035,0.000,-0.033,-0.642,-0.021,0.329,0.000,1,1,1,1,-0.003,-0.006,0.039,-0.220,0.003,0.003,0.000,0.000,0.220,0.003,0.000,0
20260703_212530,case01_boxes_2layer,6,213.5,1.000,19.523,515.091,-1.408,750.747,-10.201,-0.039,0.739,36.819,-0.575,-0.085,-0.053,0.569,-0.097,-0.084,0.525,0.086,-85.633,-0.692,-0.696,-0.354,0.011,-0.006,-0.011,0.027,-0.007,0.006,-0.693,-0.020,0.331,0.000,1,1,1,1,0.002,0.006,0.051,0.295,0.005,0.005,0.000,0.000,0.295,0.005,0.000,0
20260703_212530,case01_boxes_2layer,6,213.5,1.000,19.636,513.949,-1.413,750.829,-10.183,-0.041,0.729,36.754,0.173,-0.021,-0.100,-0.180,-0.087,-0.020,0.441,0.025,-85.668,-0.846,-0.609,-0.349,0.013,-0.005,-0.010,0.021,0.009,0.016,-0.660,-0.022,0.323,0.000,1,1,1,1,-0.003,-0.006,0.036,-0.244,0.004,0.004,0.000,0.000,0.244,0.004,0.000,0
20260703_212530,case01_boxes_2layer,6,213.5,1.000,19.736,512.926,-1.416,750.902,-10.201,-0.036,0.723,36.816,-0.177,0.043,-0.057,0.172,-0.070,0.043,0.356,-0.014,-85.698,-0.847,-0.392,-0.304,0.015,-0.005,-0.007,0.014,0.002,0.027,-0.611,-0.020,0.320,0.000,1,1,1,1,-0.003,-0.007,0.035,-0.249,0.003,0.003,0.000,0.000,0.249,0.003,0.000,0
20260703_212530,case01_boxes_2layer,6,213.5,1.000,19.836,511.903,-1.419,750.974,-10.218,-0.028,0.718,36.877,-0.174,0.086,-0.054,0.169,-0.067,0.086,0.266,-0.036,-85.728,-0.897,-0.223,-0.294,0.016,-0.005,-0.004,0.008,0.001,0.029,-0.645,-0.019,0.318,0.000,1,1,1,1,-0.003,-0.007,0.035,-0.252,0.003,0.004,0.000,0.000,0.252,0.004,0.000,0
20260703_212530,case01_boxes_2layer,6,213.5,1.000,19.943,510.799,-1.422,751.050,-10.278,-0.016,0.716,37.091,-0.598,0.115,-0.018,0.595,-0.062,0.115,0.168,-0.043,-85.758,-0.983,-0.066,-0.308,0.016,-0.005,-0.001,0.002,-0.007,0.033,-0.604,-0.020,0.321,0.000,1,1,1,1,0.002,0.007,0.050,0.319,0.004,0.004,0.000,0.000,0.319,0.004,0.000,0
20260703_212530,case01_boxes_2layer,6,213.5,1.000,20.043,509.772,-1.423,751.121,-10.295,-0.007,0.713,37.149,-0.164,0.097,-0.034,0.161,-0.046,0.097,0.079,-0.036,-85.786,-0.893,0.067,-0.277,0.015,-0.005,0.001,-0.005,0.002,0.018,-0.556,-0.018,0.319,0.000,1,1,1,1,0.002,0.007,0.050,0.318,0.003,0.003,0.000,0.000,0.318,0.003,0.000,0
20260703_212530,case01_boxes_2layer,6,213.5,1.000,20.151,508.662,-1.423,751.197,-10.271,0.001,0.707,37.064,0.235,0.077,-0.059,-0.238,-0.041,0.077,-0.012,-0.020,-85.815,-0.903,0.161,-0.289,0.014,-0.004,0.002,-0.013,0.011,0.006,-0.520,-0.017,0.310,0.000,1,1,1,1,-0.003,-0.007,0.037,-0.252,0.002,0.002,0.000,0.000,0.252,0.002,0.000,0
20260703_212530,case01_boxes_2layer,6,213.5,1.000,20.260,507.548,-1.422,751.274,-10.287,0.005,0.705,37.118,-0.154,0.036,-0.018,0.152,-0.029,0.036,-0.092,0.000,-85.842,-0.808,0.197,-0.272,0.012,-0.004,0.002,-0.017,0.002,0.003,-0.540,-0.016,0.308,0.000,1,1,1,1,-0.003,-0.008,0.038,-0.251,0.002,0.002,0.000,0.000,0.251,0.002,0.000,0
20260703_212530,case01_boxes_2layer,6,213.5,1.000,20.368,506.432,-1.422,751.350,-10.343,0.005,0.707,37.322,-0.565,0.005,0.020,0.565,-0.021,0.005,-0.161,0.019,-85.869,-0.684,0.191,-0.262,0.010,-0.005,0.002,-0.022,-0.006,0.003,-0.505,-0.017,0.312,0.000,1,1,1,1,0.002,0.007,0.050,0.312,0.003,0.003,-0.001,-0.001,0.312,0.003,0.000,0
20260703_212530,case01_boxes_2layer,6,213.5,1.000,20.476,505.317,-1.421,751.426,-10.318,0.003,0.704,37.232,0.248,-0.018,-0.032,-0.250,-0.014,-0.018,-0.215,0.033,-85.893,-0.540,0.148,-0.245,0.008,-0.003,0.001,-0.025,0.011,-0.012,-0.475,-0.016,0.303,0.000,1,1,1,1,-0.003,-0.008,0.039,-0.250,0.002,0.002,-0.001,-0.001,0.250,0.002,0.000,0
20260703_212530,case01_boxes_2layer,6,213.5,1.000,20.579,504.246,-1.421,751.498,-10.332,0.001,0.704,37.281,-0.135,-0.025,0.001,0.135,-0.009,-0.025,-0.252,0.042,-85.915,-0.375,0.088,-0.223,0.005,-0.003,0.000,-0.024,0.002,-0.007,-0.449,-0.015,0.302,0.000,1,1,1,1,-0.003,-0.008,0.039,-0.250,0.001,0.001,-0.001,-0.001,0.250,0.001,0.000,0
20260703_212530,case01_boxes_2layer,6,213.5,1.000,20.688,503.123,-1.421,751.575,-10.386,-0.002,0.707,37.477,-0.546,-0.025,0.033,0.547,-0.006,-0.025,-0.276,0.046,-85.938,-0.240,0.035,-0.225,0.003,-0.004,0.000,-0.025,-0.007,-0.002,-0.435,-0.014,0.305,0.000,1,1,1,1,0.002,0.008,0.050,0.311,0.002,0.002,-0.001,-0.001,0.311,0.002,0.000,0
20260703_212530,case01_boxes_2layer,6,213.5,1.000,20.792,502.045,-1.421,751.648,-10.360,-0.003,0.705,37.381,0.267,-0.014,-0.024,-0.268,-0.005,-0.014,-0.285,0.044,-85.958,-0.090,-0.014,-0.205,0.000,-0.003,-0.001,-0.024,0.010,-0.011,-0.426,-0.014,0.297,0.000,1,1,1,1,-0.003,-0.008,0.038,-0.251,0.001,0.001,-0.001,-0.001,0.251,0.001,0.000,0
20260703_212530,case01_boxes_2layer,6,213.5,1.000,20.896,500.965,-1.422,751.721,-10.372,-0.003,0.705,37.424,-0.120,-0.001,0.002,0.120,-0.006,-0.001,-0.282,0.040,-85.978,0.036,-0.048,-0.197,-0.002,-0.003,-0.001,-0.020,0.001,-0.003,-0.449,-0.015,0.296,0.000,1,1,1,1,-0.003,-0.008,0.037,-0.252,0.002,0.002,-0.001,-0.001,0.252,0.002,0.000,0
20260703_212530,case01_boxes_2layer,6,213.5,1.000,21.000,499.882,-1.422,751.794,-10.383,-0.002,0.705,37.466,-0.116,0.009,-0.001,0.116,-0.010,0.009,-0.267,0.033,-85.997,0.149,-0.064,-0.194,-0.003,-0.003,-0.001,-0.017,0.000,0.000,-0.446,-0.015,0.294,0.000,1,1,1,1,-0.003,-0.008,0.037,-0.252,0.002,0.002,-0.001,-0.001,0.252,0.002,0.000,0
20260703_212530,case01_boxes_2layer,6,213.5,1.000,21.104,498.799,-1.422,751.868,-10.436,0.000,0.707,37.656,-0.529,0.019,0.021,0.529,-0.016,0.019,-0.242,0.027,-86.017,0.244,-0.064,-0.197,-0.005,-0.004,0.000,-0.015,-0.009,0.007,-0.455,-0.015,0.298,0.000,1,1,1,1,0.002,0.007,0.048,0.310,0.003,0.003,-0.001,-0.001,0.310,0.003,0.000,0
20260703_212530,case01_boxes_2layer,6,213.5,1.000,21.207,497.718,-1.422,751.941,-10.447,0.002,0.705,37.695,-0.108,0.021,-0.014,0.107,-0.022,0.021,-0.211,0.021,-86.037,0.319,-0.053,-0.201,-0.006,-0.004,0.000,-0.011,-0.001,0.003,-0.497,-0.015,0.296,0.000,1,1,1,1,0.002,0.007,0.048,0.308,0.003,0.003,-0.001,-0.001,0.308,0.003,0.000,0
20260703_212530,case01_boxes_2layer,6,213.5,1.000,21.312,496.630,-1.422,752.014,-10.418,0.004,0.700,37.591,0.285,0.023,-0.050,-0.288,-0.030,0.023,-0.173,0.018,-86.058,0.378,-0.037,-0.209,-0.007,-0.003,0.000,-0.008,0.007,-0.002,-0.514,-0.017,0.289,0.000,1,1,1,1,-0.003,-0.007,0.035,-0.249,0.003,0.003,-0.001,-0.001,0.249,0.003,0.000,0
20260703_212530,case01_boxes_2layer,6,213.5,1.000,21.416,495.545,-1.421,752.087,-10.429,0.006,0.698,37.628,-0.104,0.017,-0.027,0.102,-0.034,0.017,-0.131,0.016,-86.080,0.413,-0.018,-0.218,-0.007,-0.003,0.000,-0.004,-0.002,0.003,-0.521,-0.017,0.288,0.000,1,1,1,1,-0.003,-0.007,0.035,-0.248,0.003,0.003,0.000,0.000,0.248,0.003,0.000,0
20260703_212530,case01_boxes_2layer,6,213.5,1.000,21.520,494.458,-1.421,752.160,-10.439,0.007,0.694,37.663,-0.101,0.012,-0.035,0.099,-0.042,0.012,-0.088,0.016,-86.103,0.432,-0.001,-0.232,-0.007,-0.004,0.000,-0.001,-0.002,0.003,-0.528,-0.018,0.286,0.000,1,1,1,1,-0.003,-0.007,0.035,-0.246,0.003,0.003,0.000,0.000,0.246,0.003,0.000,0
20260703_212530,case01_boxes_2layer,6,213.5,1.000,21.623,493.372,-1.420,752.232,-10.489,0.008,0.692,37.841,-0.496,0.006,-0.018,0.494,-0.051,0.006,-0.045,0.017,-86.128,0.432,0.014,-0.248,-0.007,-0.005,0.001,0.002,-0.011,0.007,-0.542,-0.018,0.290,0.000,1,1,1,1,0.002,0.006,0.046,0.299,0.003,0.003,-0.001,-0.001,0.299,0.003,0.000,0
20260703_212530,case01_boxes_2layer,6,213.5,1.000,21.727,492.283,-1.419,752.303,-10.498,0.007,0.688,37.873,-0.091,-0.001,-0.046,0.088,-0.052,-0.001,-0.003,0.019,-86.154,0.417,0.022,-0.262,-0.007,-0.005,0.001,0.004,-0.002,0.000,-0.597,-0.020,0.289,0.000,1,1,1,1,0.002,0.006,0.046,0.296,0.004,0.004,-0.001,-0.001,0.296,0.004,0.000,0
20260703_212530,case01_boxes_2layer,6,213.5,1.000,21.831,491.195,-1.419,752.374,-10.469,0.007,0.680,37.769,0.284,-0.006,-0.083,-0.289,-0.064,-0.006,0.035,0.022,-86.181,0.386,0.023,-0.274,-0.006,-0.004,0.001,0.006,0.006,-0.006,-0.611,-0.020,0.282,0.000,1,1,1,1,-0.003,-0.006,0.034,-0.240,0.003,0.003,0.000,0.000,0.240,0.003,0.000,0
20260703_212530,case01_boxes_2layer,6,213.5,1.000,21.940,490.058,-1.418,752.448,-10.478,0.006,0.674,37.799,-0.088,-0.010,-0.057,0.084,-0.063,-0.010,0.071,0.024,-86.211,0.360,0.020,-0.300,-0.005,-0.005,0.000,0.007,-0.002,-0.001,-0.606,-0.020,0.281,0.000,1,1,1,1,-0.003,-0.006,0.034,-0.239,0.003,0.003,0.000,0.000,0.239,0.003,0.000,0
20260703_212530,case01_boxes_2layer,6,213.5,1.000,22.043,488.969,-1.418,752.518,-10.525,0.004,0.670,37.966,-0.469,-0.014,-0.043,0.465,-0.074,-0.013,0.100,0.025,-86.242,0.292,0.016,-0.303,-0.004,-0.006,0.001,0.010,-0.010,0.003,-0.614,-0.021,0.285,0.000,1,1,1,1,0.002,0.006,0.045,0.290,0.004,0.004,0.000,0.000,0.290,0.004,0.000,0
20260703_212530,case01_boxes_2layer,6,213.5,1.000,22.151,487.833,-1.417,752.589,-10.496,0.003,0.660,37.861,0.286,-0.014,-0.095,-0.292,-0.077,-0.014,0.125,0.026,-86.275,0.245,0.010,-0.330,-0.003,-0.005,0.000,0.010,0.006,-0.007,-0.614,-0.021,0.278,0.000,1,1,1,1,-0.002,-0.006,0.034,-0.236,0.003,0.003,0.000,0.000,0.236,0.003,0.000,0
20260703_212530,case01_boxes_2layer,6,213.5,1.000,22.251,486.781,-1.417,752.655,-10.504,0.002,0.654,37.888,-0.078,-0.013,-0.066,0.074,-0.070,-0.012,0.142,0.026,-86.306,0.168,0.002,-0.312,-0.002,-0.005,0.000,0.010,-0.001,-0.002,-0.669,-0.022,0.277,0.000,1,1,1,1,-0.002,-0.006,0.033,-0.236,0.004,0.004,0.000,0.000,0.236,0.004,0.000,0
20260703_212530,case01_boxes_2layer,6,213.5,1.000,22.355,485.687,-1.417,752.723,-10.512,0.001,0.647,37.914,-0.075,-0.011,-0.068,0.071,-0.072,-0.011,0.153,0.026,-86.339,0.114,-0.004,-0.332,-0.001,-0.005,0.000,0.010,-0.001,-0.001,-0.654,-0.022,0.276,0.000,1,1,1,1,-0.002,-0.006,0.033,-0.236,0.003,0.003,0.000,0.000,0.236,0.003,0.000,0
20260703_212530,case01_boxes_2layer,6,213.5,1.000,22.456,484.631,-1.417,752.787,-10.519,0.000,0.640,37.938,-0.072,-0.010,-0.070,0.068,-0.075,-0.009,0.158,0.025,-86.372,0.053,-0.007,-0.327,0.000,-0.005,0.000,0.009,-0.001,-0.001,-0.637,-0.021,0.275,0.000,1,1,1,1,-0.002,-0.006,0.033,-0.236,0.003,0.003,0.000,0.000,0.236,0.003,0.000,0
20260703_212530,case01_boxes_2layer,6,213.5,1.000,22.563,483.496,-1.417,752.856,-10.564,-0.001,0.634,38.099,-0.450,-0.009,-0.053,0.446,-0.081,-0.008,0.158,0.024,-86.408,-0.002,-0.009,-0.358,0.001,-0.006,0.000,0.010,-0.009,0.004,-0.628,-0.021,0.280,0.000,1,1,1,1,0.002,0.006,0.044,0.287,0.003,0.003,0.000,0.000,0.287,0.003,0.000,0
20260703_212530,case01_boxes_2layer,6,213.5,1.000,22.672,482.353,-1.417,752.924,-10.534,-0.002,0.625,37.989,0.300,-0.006,-0.098,-0.306,-0.080,-0.006,0.152,0.024,-86.444,-0.058,-0.009,-0.364,0.001,-0.005,0.000,0.008,0.007,-0.006,-0.689,-0.021,0.273,0.000,1,1,1,1,-0.002,-0.006,0.033,-0.237,0.004,0.004,0.000,0.000,0.237,0.004,0.000,0
20260703_212530,case01_boxes_2layer,6,213.5,1.000,22.780,481.213,-1.417,752.991,-10.540,-0.002,0.618,38.010,-0.064,-0.004,-0.066,0.060,-0.070,-0.004,0.142,0.023,-86.480,-0.106,-0.009,-0.361,0.002,-0.005,0.000,0.007,0.000,0.000,-0.665,-0.022,0.272,0.000,1,1,1,1,-0.002,-0.006,0.033,-0.237,0.003,0.003,0.000,0.000,0.237,0.003,0.000,0
20260703_212530,case01_boxes_2layer,6,213.5,1.000,22.883,480.118,-1.418,753.055,-10.585,-0.003,0.613,38.169,-0.444,-0.003,-0.051,0.441,-0.078,-0.003,0.128,0.022,-86.515,-0.138,-0.005,-0.351,0.003,-0.006,0.000,0.006,-0.008,0.005,-0.653,-0.022,0.277,0.000,1,1,1,1,0.002,0.006,0.044,0.288,0.004,0.004,0.000,0.000,0.288,0.004,0.000,0
20260703_212530,case01_boxes_2layer,6,213.5,1.000,22.992,478.973,-1.418,753.121,-10.554,-0.003,0.604,38.055,0.311,-0.001,-0.092,-0.316,-0.073,-0.001,0.111,0.022,-86.552,-0.173,-0.003,-0.366,0.003,-0.005,0.000,0.004,0.008,-0.005,-0.640,-0.021,0.270,0.000,1,1,1,1,-0.002,-0.006,0.033,-0.238,0.003,0.003,0.000,0.000,0.238,0.003,0.000,0
20260703_212530,case01_boxes_2layer,6,213.5,1.000,23.095,477.877,-1.418,753.183,-10.559,-0.003,0.597,38.074,-0.057,-0.001,-0.063,0.053,-0.067,0.000,0.092,0.022,-86.586,-0.184,-0.002,-0.346,0.003,-0.005,0.000,0.002,0.000,0.000,-0.619,-0.021,0.270,0.000,1,1,1,1,-0.002,-0.006,0.033,-0.239,0.002,0.002,0.000,0.000,0.239,0.002,0.000,0
20260703_212530,case01_boxes_2layer,6,213.5,1.000,23.204,476.730,-1.418,753.247,-10.603,-0.003,0.593,38.232,-0.441,0.000,-0.046,0.437,-0.072,0.000,0.072,0.022,-86.623,-0.201,0.000,-0.361,0.003,-0.006,0.000,0.001,-0.008,0.005,-0.673,-0.020,0.274,0.000,1,1,1,1,0.002,0.006,0.044,0.290,0.004,0.004,0.000,0.000,0.290,0.004,0.000,0
20260703_212530,case01_boxes_2layer,6,213.5,1.000,23.307,475.632,-1.419,753.308,-10.609,-0.003,0.587,38.250,-0.054,0.001,-0.057,0.050,-0.060,0.001,0.053,0.022,-86.657,-0.193,0.001,-0.345,0.003,-0.006,0.000,-0.001,0.001,0.000,-0.651,-0.022,0.274,0.000,1,1,1,1,0.002,0.006,0.044,0.290,0.004,0.004,0.000,0.000,0.290,0.004,0.000,0
20260703_212530,case01_boxes_2layer,6,213.5,1.000,23.411,474.529,-1.419,753.369,-10.576,-0.002,0.579,38.131,0.325,0.002,-0.084,-0.329,-0.065,0.002,0.034,0.022,-86.691,-0.187,0.001,-0.343,0.003,-0.005,0.000,-0.002,0.009,-0.005,-0.639,-0.021,0.267,0.000,1,1,1,1,-0.002,-0.006,0.033,-0.241,0.003,0.003,0.000,0.000,0.241,0.003,0.000,0
20260703_212530,case01_boxes_2layer,6,213.5,1.000,23.516,473.426,-1.419,753.428,-10.581,-0.002,0.573,38.148,-0.049,0.002,-0.056,0.046,-0.059,0.002,0.017,0.022,-86.725,-0.173,0.000,-0.339,0.003,-0.005,0.000,-0.003,0.000,0.000,-0.619,-0.021,0.266,0.000,1,1,1,1,-0.002,-0.006,0.033,-0.241,0.003,0.003,0.000,0.000,0.241,0.003,0.000,0
20260703_212530,case01_boxes_2layer,6,213.5,1.000,23.619,472.324,-1.419,753.488,-10.586,-0.002,0.568,38.164,-0.047,0.003,-0.054,0.044,-0.057,0.003,0.002,0.022,-86.759,-0.154,0.000,-0.337,0.002,-0.005,0.000,-0.003,0.000,0.000,-0.601,-0.020,0.266,0.000,1,1,1,1,-0.002,-0.006,0.033,-0.242,0.002,0.002,0.000,0.000,0.242,0.002,0.000,0
20260703_212530,case01_boxes_2layer,6,213.5,1.000,23.723,471.224,-1.419,753.546,-10.629,-0.002,0.564,38.320,-0.435,0.003,-0.039,0.432,-0.063,0.003,-0.011,0.022,-86.793,-0.130,0.000,-0.337,0.002,-0.006,0.000,-0.004,-0.008,0.005,-0.659,-0.020,0.271,0.000,1,1,1,1,0.002,0.006,0.043,0.292,0.004,0.004,0.000,0.000,0.292,0.004,0.000,0
20260703_212530,case01_boxes_2layer,6,213.5,1.000,23.823,470.161,-1.420,753.602,-10.634,-0.001,0.558,38.335,-0.045,0.003,-0.053,0.042,-0.056,0.003,-0.022,0.022,-86.825,-0.101,-0.001,-0.324,0.002,-0.006,0.000,-0.004,0.000,0.000,-0.643,-0.022,0.270,0.000,1,1,1,1,0.002,0.006,0.043,0.292,0.004,0.004,0.000,0.000,0.292,0.004,0.000,0
20260703_212530,case01_boxes_2layer,6,213.5,1.000,23.923,469.098,-1.420,753.658,-10.638,-0.001,0.553,38.349,-0.043,0.004,-0.052,0.040,-0.054,0.004,-0.029,0.022,-86.857,-0.075,-0.001,-0.324,0.001,-0.006,0.000,-0.005,0.000,0.000,-0.626,-0.021,0.269,0.000,1,1,1,1,0.002,0.006,0.043,0.292,0.003,0.003,0.000,0.000,0.292,0.003,0.000,0
20260703_212530,case01_boxes_2layer,6,213.5,1.000,24.024,468.035,-1.420,753.712,-10.642,-0.001,0.548,38.363,-0.042,0.004,-0.055,0.038,-0.057,0.004,-0.034,0.022,-86.890,-0.049,-0.001,-0.325,0.001,-0.006,0.000,-0.005,0.000,0.000,-0.614,-0.021,0.269,0.000,1,1,1,1,0.002,0.006,0.043,0.292,0.003,0.003,0.000,0.000,0.292,0.003,0.000,0
20260703_212530,case01_boxes_2layer,6,213.5,1.000,24.124,466.972,-1.420,753.767,-10.646,0.000,0.542,38.376,-0.040,0.004,-0.055,0.037,-0.057,0.004,-0.036,0.021,-86.922,-0.023,-0.001,-0.326,0.000,-0.006,0.000,-0.004,0.000,0.000,-0.664,-0.020,0.268,0.000,1,1,1,1,0.002,0.006,0.043,0.291,0.004,0.004,0.000,0.000,0.291,0.004,0.000,0
20260703_212530,case01_boxes_2layer,6,213.5,1.000,24.231,465.828,-1.420,753.824,-10.612,0.000,0.534,38.252,0.342,0.004,-0.081,-0.346,-0.063,0.004,-0.036,0.021,-86.958,0.002,0.000,-0.354,0.000,-0.005,0.000,-0.005,0.008,-0.005,-0.663,-0.022,0.262,0.000,1,1,1,1,-0.002,-0.006,0.032,-0.242,0.003,0.003,0.000,0.000,0.242,0.003,0.000,0
20260703_212530,case01_boxes_2layer,6,213.5,1.000,24.335,464.722,-1.420,753.880,-10.616,0.001,0.528,38.264,-0.038,0.003,-0.056,0.035,-0.058,0.003,-0.033,0.021,-86.992,0.026,-0.001,-0.344,-0.001,-0.005,0.000,-0.004,0.000,0.000,-0.656,-0.022,0.262,0.000,1,1,1,1,-0.002,-0.006,0.032,-0.242,0.003,0.003,0.000,0.000,0.242,0.003,0.000,0
20260703_212530,case01_boxes_2layer,6,213.5,1.000,24.436,463.655,-1.420,753.932,-10.620,0.001,0.523,38.277,-0.037,0.003,-0.059,0.034,-0.060,0.003,-0.029,0.021,-87.026,0.045,0.000,-0.336,-0.001,-0.005,0.000,-0.003,-0.001,0.000,-0.646,-0.022,0.261,0.000,1,1,1,1,-0.002,-0.006,0.032,-0.241,0.003,0.003,0.000,0.000,0.241,0.003,0.000,0
20260703_212530,case01_boxes_2layer,6,213.5,1.000,24.539,462.550,-1.420,753.986,-10.623,0.001,0.517,38.288,-0.036,0.002,-0.061,0.032,-0.063,0.002,-0.023,0.021,-87.061,0.063,-0.001,-0.352,-0.001,-0.006,0.000,-0.002,-0.001,0.000,-0.640,-0.021,0.261,0.000,1,1,1,1,-0.002,-0.006,0.032,-0.241,0.003,0.003,0.000,0.000,0.241,0.003,0.000,0
20260703_212530,case01_boxes_2layer,6,213.5,1.000,24.643,461.445,-1.419,754.040,-10.665,0.001,0.512,38.438,-0.419,0.002,-0.050,0.416,-0.071,0.002,-0.015,0.021,-87.097,0.076,0.001,-0.358,-0.001,-0.006,0.000,-0.002,-0.009,0.005,-0.706,-0.022,0.266,0.000,1,1,1,1,0.002,0.006,0.043,0.289,0.004,0.004,0.000,0.000,0.289,0.004,0.000,0
20260703_212530,case01_boxes_2layer,6,213.5,1.000,24.747,460.337,-1.419,754.092,-10.668,0.001,0.505,38.449,-0.032,0.001,-0.064,0.029,-0.066,0.001,-0.007,0.021,-87.133,0.085,0.001,-0.366,-0.001,-0.007,0.000,-0.001,-0.001,0.000,-0.700,-0.024,0.265,0.000,1,1,1,1,0.002,0.006,0.043,0.288,0.004,0.004,0.000,0.000,0.288,0.004,0.000,0
20260703_212530,case01_boxes_2layer,6,213.5,1.000,24.851,459.230,-1.419,754.144,-10.634,0.001,0.496,38.323,0.345,0.001,-0.091,-0.349,-0.074,0.001,0.003,0.021,-87.171,0.091,0.001,-0.371,-0.002,-0.006,0.000,-0.001,0.007,-0.005,-0.703,-0.024,0.259,0.000,1,1,1,1,-0.002,-0.006,0.032,-0.240,0.003,0.003,0.000,0.000,0.240,0.003,0.000,0
20260703_212530,case01_boxes_2layer,6,213.5,1.000,24.955,458.121,-1.419,754.196,-10.637,0.001,0.489,38.333,-0.031,0.000,-0.070,0.028,-0.071,0.000,0.012,0.021,-87.208,0.093,0.000,-0.378,-0.002,-0.006,0.000,0.000,-0.001,0.000,-0.696,-0.023,0.259,0.000,1,1,1,1,-0.002,-0.006,0.032,-0.239,0.003,0.003,0.000,0.000,0.239,0.003,0.000,0
20260703_212530,case01_boxes_2layer,6,213.5,1.000,25.068,456.925,-1.419,754.250,-10.678,0.001,0.483,38.480,-0.411,-0.001,-0.059,0.408,-0.078,-0.001,0.022,0.021,-87.250,0.097,0.001,-0.417,-0.001,-0.007,0.000,0.001,-0.009,0.005,-0.701,-0.024,0.264,0.000,1,1,1,1,0.002,0.006,0.042,0.287,0.004,0.004,0.000,0.000,0.287,0.004,0.000,0
20260703_212530,case01_boxes_2layer,6,213.5,1.000,25.171,455.819,-1.419,754.299,-10.643,0.001,0.473,38.354,0.346,-0.001,-0.097,-0.351,-0.081,-0.001,0.030,0.021,-87.289,0.084,0.000,-0.392,-0.001,-0.006,0.000,0.001,0.007,-0.005,-0.704,-0.024,0.258,0.000,1,1,1,1,-0.002,-0.006,0.031,-0.239,0.003,0.003,0.000,0.000,0.239,0.003,0.000,0
20260703_212530,case01_boxes_2layer,6,213.5,1.000,25.275,454.709,-1.419,754.348,-10.646,0.001,0.466,38.363,-0.028,-0.001,-0.076,0.024,-0.077,-0.001,0.038,0.021,-87.329,0.076,-0.001,-0.398,-0.001,-0.006,0.000,0.001,-0.001,0.000,-0.768,-0.023,0.258,0.000,1,1,1,1,-0.002,-0.006,0.031,-0.238,0.004,0.004,0.000,0.000,0.238,0.004,0.000,0
20260703_212530,case01_boxes_2layer,6,213.5,1.000,25.380,453.598,-1.419,754.397,-10.649,0.001,0.458,38.371,-0.027,-0.002,-0.074,0.023,-0.075,-0.002,0.044,0.021,-87.370,0.066,-0.001,-0.404,-0.001,-0.006,0.000,0.002,-0.001,0.000,-0.758,-0.026,0.257,0.000,1,1,1,1,-0.002,-0.006,0.031,-0.238,0.004,0.004,0.000,0.000,0.238,0.004,0.000,0
20260703_212530,case01_boxes_2layer,6,213.5,1.000,25.492,452.403,-1.419,754.447,-10.652,0.001,0.449,38.381,-0.031,-0.002,-0.094,0.027,-0.095,-0.002,0.050,0.021,-87.414,0.058,0.001,-0.444,-0.001,-0.007,0.000,0.002,-0.001,0.000,-0.774,-0.026,0.257,0.000,1,1,1,1,-0.002,-0.006,0.031,-0.238,0.004,0.004,0.000,0.000,0.238,0.004,0.000,0
20260703_212530,case01_boxes_2layer,6,213.5,1.000,25.596,451.293,-1.419,754.494,-10.654,0.000,0.441,38.389,-0.025,-0.002,-0.078,0.021,-0.079,-0.002,0.054,0.021,-87.456,0.041,-0.001,-0.417,-0.001,-0.007,0.000,0.002,-0.001,0.000,-0.764,-0.026,0.257,0.000,1,1,1,1,-0.002,-0.006,0.031,-0.238,0.003,0.004,0.000,0.000,0.238,0.004,0.000,0
20260703_212530,case01_boxes_2layer,6,213.5,1.000,25.708,450.097,-1.419,754.542,-10.695,0.000,0.434,38.532,-0.402,-0.002,-0.072,0.398,-0.090,-0.002,0.057,0.021,-87.502,0.030,0.000,-0.458,0.000,-0.008,0.000,0.002,-0.009,0.005,-0.766,-0.026,0.262,0.000,1,1,1,1,0.002,0.006,0.042,0.285,0.004,0.004,0.000,0.000,0.285,0.004,0.000,0
20260703_212530,case01_boxes_2layer,6,213.5,1.000,25.820,448.902,-1.419,754.590,-10.660,0.000,0.424,38.405,0.350,-0.002,-0.104,-0.354,-0.089,-0.002,0.059,0.021,-87.548,0.016,-0.002,-0.461,0.000,-0.007,0.000,0.002,0.007,-0.005,-0.767,-0.026,0.256,0.000,1,1,1,1,-0.002,-0.006,0.031,-0.237,0.003,0.003,0.000,0.000,0.237,0.003,0.000,0
20260703_212530,case01_boxes_2layer,6,213.5,1.000,25.931,447.708,-1.419,754.637,-10.662,0.000,0.414,38.413,-0.026,-0.002,-0.098,0.022,-0.099,-0.002,0.059,0.021,-87.595,0.002,0.001,-0.470,0.000,-0.007,0.000,0.002,-0.001,0.000,-0.783,-0.026,0.255,0.000,1,1,1,1,-0.002,-0.006,0.031,-0.237,0.004,0.004,0.000,0.000,0.237,0.004,0.000,0
20260703_212530,case01_boxes_2layer,6,213.5,1.000,26.043,446.512,-1.419,754.683,-10.702,0.000,0.406,38.555,-0.399,-0.002,-0.076,0.395,-0.092,-0.002,0.058,0.021,-87.642,-0.010,-0.001,-0.473,0.000,-0.008,0.000,0.002,-0.009,0.005,-0.784,-0.026,0.261,0.000,1,1,1,1,0.002,0.006,0.042,0.284,0.004,0.004,0.000,0.000,0.284,0.004,0.000,0
20260703_212530,case01_boxes_2layer,6,213.5,1.000,26.156,445.314,-1.419,754.728,-10.667,0.000,0.396,38.427,0.353,-0.001,-0.106,-0.357,-0.091,-0.001,0.056,0.021,-87.690,-0.020,0.000,-0.480,0.000,-0.007,0.000,0.001,0.007,-0.005,-0.782,-0.026,0.255,0.000,1,1,1,1,-0.002,-0.006,0.031,-0.238,0.003,0.003,0.000,0.000,0.238,0.003,0.000,0
20260703_212530,case01_boxes_2layer,6,213.5,1.000,26.268,444.116,-1.419,754.771,-10.706,0.000,0.388,38.569,-0.397,-0.001,-0.075,0.394,-0.091,-0.001,0.053,0.021,-87.738,-0.029,0.000,-0.483,0.001,-0.008,0.000,0.001,-0.008,0.005,-0.787,-0.026,0.260,0.000,1,1,1,1,0.002,0.006,0.042,0.284,0.004,0.004,0.000,0.000,0.284,0.004,0.000,0
20260703_212530,case01_boxes_2layer,6,213.5,1.000,26.375,442.965,-1.419,754.812,-10.671,-0.001,0.377,38.439,0.355,0.000,-0.106,-0.359,-0.093,0.000,0.050,0.021,-87.785,-0.033,-0.001,-0.467,0.001,-0.007,0.000,0.001,0.007,-0.005,-0.787,-0.026,0.254,0.000,1,1,1,1,-0.002,-0.006,0.031,-0.238,0.003,0.003,0.000,0.000,0.238,0.003,0.000,0
20260703_212530,case01_boxes_2layer,6,213.5,1.000,26.480,441.851,-1.419,754.851,-10.673,-0.001,0.369,38.445,-0.018,0.000,-0.086,0.015,-0.086,0.000,0.046,0.021,-87.830,-0.036,-0.001,-0.455,0.001,-0.007,0.000,0.000,-0.001,0.000,-0.777,-0.026,0.254,0.000,1,1,1,1,-0.002,-0.006,0.031,-0.238,0.003,0.003,0.000,0.000,0.238,0.003,0.000,0
20260703_212530,case01_boxes_2layer,6,213.5,1.000,26.592,440.652,-1.419,754.892,-10.675,-0.001,0.359,38.451,-0.021,0.000,-0.101,0.017,-0.101,0.000,0.042,0.021,-87.880,-0.040,0.001,-0.497,0.001,-0.007,0.000,0.000,-0.001,0.000,-0.792,-0.027,0.254,0.000,1,1,1,1,-0.002,-0.006,0.031,-0.238,0.003,0.003,0.000,0.000,0.238,0.003,0.000,0
20260703_212530,case01_boxes_2layer,6,213.5,1.000,26.699,439.500,-1.419,754.930,-10.676,-0.001,0.350,38.456,-0.017,0.000,-0.085,0.014,-0.085,0.000,0.038,0.021,-87.928,-0.038,-0.002,-0.478,0.001,-0.007,0.000,0.000,-0.001,0.000,-0.781,-0.026,0.253,0.000,1,1,1,1,-0.002,-0.006,0.031,-0.238,0.003,0.003,0.000,0.000,0.238,0.003,0.000,0
20260703_212530,case01_boxes_2layer,6,213.5,1.000,26.803,438.386,-1.419,754.966,-10.716,-0.001,0.342,38.597,-0.395,0.000,-0.081,0.392,-0.095,0.000,0.035,0.021,-87.975,-0.035,0.000,-0.468,0.001,-0.008,0.000,0.000,-0.009,0.005,-0.787,-0.026,0.259,0.000,1,1,1,1,0.002,0.006,0.042,0.285,0.004,0.004,0.000,0.000,0.285,0.004,0.000,0
20260703_212530,case01_boxes_2layer,6,213.5,1.000,26.904,437.316,-1.419,755.000,-10.718,0.000,0.334,38.602,-0.016,0.001,-0.087,0.013,-0.088,0.001,0.032,0.021,-88.020,-0.031,0.000,-0.453,0.001,-0.008,0.000,-0.001,-0.001,0.000,-0.852,-0.026,0.258,0.000,1,1,1,1,0.002,0.006,0.041,0.285,0.005,0.005,0.000,0.000,0.285,0.005,0.000,0
20260703_212530,case01_boxes_2layer,6,213.5,1.000,27.011,436.164,-1.419,755.035,-10.681,0.000,0.323,38.471,0.361,0.001,-0.107,-0.364,-0.095,0.001,0.029,0.021,-88.069,-0.028,0.000,-0.493,0.000,-0.008,0.000,-0.001,0.007,-0.005,-0.856,-0.026,0.253,0.000,1,1,1,1,-0.002,-0.006,0.031,-0.238,0.004,0.004,0.000,0.000,0.238,0.004,0.000,0
20260703_212530,case01_boxes_2layer,6,213.5,1.000,27.111,435.092,-1.419,755.067,-10.683,0.000,0.314,38.475,-0.014,0.001,-0.086,0.011,-0.086,0.001,0.027,0.021,-88.115,-0.022,0.000,-0.461,0.000,-0.008,0.000,-0.001,0.000,0.000,-0.846,-0.028,0.253,0.000,1,1,1,1,-0.002,-0.006,0.031,-0.238,0.004,0.004,0.000,0.000,0.238,0.004,0.000,0
20260703_212530,case01_boxes_2layer,6,213.5,1.000,27.215,433.979,-1.419,755.099,-10.684,0.000,0.305,38.479,-0.014,0.001,-0.088,0.011,-0.089,0.001,0.025,0.021,-88.164,-0.017,-0.001,-0.483,0.000,-0.008,0.000,-0.001,-0.001,0.000,-0.839,-0.028,0.252,0.000,1,1,1,1,-0.002,-0.006,0.031,-0.238,0.003,0.004,0.000,0.000,0.238,0.004,0.000,0
20260703_212530,case01_boxes_2layer,6,213.5,1.000,27.328,432.779,-1.419,755.132,-10.723,0.000,0.297,38.619,-0.392,0.001,-0.086,0.389,-0.098,0.001,0.024,0.021,-88.216,-0.012,0.000,-0.528,0.000,-0.009,0.000,-0.001,-0.009,0.005,-0.843,-0.028,0.258,0.000,1,1,1,1,0.002,0.006,0.041,0.285,0.004,0.004,0.000,0.000,0.285,0.004,0.000,0
20260703_212530,case01_boxes_2layer,6,213.5,1.000,27.435,431.625,-1.419,755.164,-10.687,0.000,0.286,38.487,0.363,0.001,-0.110,-0.367,-0.099,0.001,0.023,0.021,-88.267,-0.005,-0.001,-0.511,0.000,-0.008,0.000,-0.001,0.007,-0.005,-0.850,-0.029,0.252,0.000,1,1,1,1,-0.002,-0.006,0.031,-0.238,0.003,0.004,0.000,0.000,0.238,0.004,0.000,0
20260703_212530,case01_boxes_2layer,6,213.5,1.000,27.540,430.509,-1.419,755.193,-10.688,0.000,0.277,38.491,-0.012,0.001,-0.091,0.010,-0.092,0.001,0.024,0.021,-88.317,0.001,-0.001,-0.500,0.000,-0.008,0.000,-0.001,-0.001,0.000,-0.848,-0.028,0.252,0.000,1,1,1,1,-0.002,-0.006,0.031,-0.238,0.003,0.003,0.001,0.001,0.238,0.003,0.000,0
20260703_212530,case01_boxes_2layer,6,213.5,1.000,27.651,429.313,-1.419,755.223,-10.690,0.000,0.265,38.495,-0.014,0.001,-0.113,0.011,-0.113,0.001,0.024,0.021,-88.372,0.007,0.001,-0.544,0.000,-0.008,0.000,-0.001,-0.001,0.000,-0.868,-0.029,0.252,0.000,1,1,1,1,-0.002,-0.006,0.031,-0.238,0.004,0.004,0.001,0.001,0.238,0.004,0.000,0
20260703_212530,case01_boxes_2layer,6,213.5,1.000,27.759,428.155,-1.419,755.251,-10.691,0.000,0.256,38.498,-0.011,0.001,-0.095,0.009,-0.096,0.001,0.026,0.021,-88.425,0.012,-0.001,-0.531,0.000,-0.008,0.000,-0.001,-0.001,0.000,-0.864,-0.029,0.251,0.000,1,1,1,1,-0.002,-0.006,0.031,-0.238,0.003,0.003,0.001,0.001,0.238,0.003,0.000,0
20260703_212530,case01_boxes_2layer,6,213.5,1.000,27.864,427.039,-1.419,755.277,-10.730,0.000,0.247,38.637,-0.389,0.000,-0.088,0.386,-0.098,0.000,0.027,0.021,-88.477,0.015,0.000,-0.519,0.000,-0.009,0.000,0.000,-0.008,0.005,-0.807,-0.029,0.257,0.000,1,1,1,1,0.002,0.006,0.041,0.284,0.003,0.003,0.000,0.000,0.284,0.003,0.000,0
20260703_212530,case01_boxes_2layer,6,213.5,1.000,27.971,425.886,-1.419,755.303,-10.693,0.000,0.236,38.505,0.365,0.001,-0.108,-0.368,-0.099,0.000,0.029,0.021,-88.530,0.018,0.001,-0.535,0.000,-0.008,0.000,0.000,0.008,-0.005,-0.817,-0.027,0.251,0.000,1,1,1,1,-0.002,-0.006,0.031,-0.238,0.003,0.003,0.001,0.001,0.238,0.003,0.000,0
20260703_212530,case01_boxes_2layer,6,213.5,1.000,28.076,424.768,-1.419,755.327,-10.694,0.000,0.228,38.508,-0.010,0.000,-0.087,0.008,-0.087,0.000,0.031,0.021,-88.581,0.018,-0.001,-0.511,0.000,-0.008,0.000,0.000,0.001,0.000,-0.891,-0.028,0.251,0.000,1,1,1,1,-0.002,-0.006,0.031,-0.238,0.004,0.004,0.001,0.001,0.238,0.004,0.000,0
20260703_212530,case01_boxes_2layer,6,213.5,1.000,28.183,423.614,-1.419,755.351,-10.733,0.000,0.218,38.646,-0.387,0.000,-0.094,0.384,-0.103,0.000,0.033,0.021,-88.634,0.019,0.000,-0.527,0.000,-0.009,0.000,0.000,-0.008,0.005,-0.915,-0.028,0.256,0.000,1,1,1,1,0.002,0.006,0.041,0.284,0.005,0.005,0.000,0.000,0.284,0.005,0.000,0
20260703_212530,case01_boxes_2layer,6,213.5,1.000,28.288,422.496,-1.419,755.373,-10.734,0.000,0.208,38.649,-0.009,0.000,-0.098,0.007,-0.098,0.000,0.035,0.021,-88.686,0.019,0.001,-0.518,0.000,-0.009,0.000,0.000,-0.001,0.000,-0.924,-0.029,0.256,0.000,1,1,1,1,0.002,0.006,0.041,0.284,0.005,0.005,0.000,0.000,0.284,0.005,0.000,0
20260703_212530,case01_boxes_2layer,6,213.5,1.000,28.395,421.344,-1.419,755.394,-10.697,0.000,0.196,38.516,0.366,0.000,-0.120,-0.369,-0.112,0.000,0.037,0.021,-88.740,0.020,0.000,-0.540,0.000,-0.009,0.000,0.000,0.006,-0.005,-0.954,-0.029,0.251,0.000,1,1,1,1,-0.002,-0.006,0.031,-0.238,0.005,0.005,0.001,0.001,0.238,0.005,0.000,0
20260703_212530,case01_boxes_2layer,6,213.5,1.000,28.500,420.226,-1.419,755.414,-10.698,0.000,0.186,38.518,-0.008,0.000,-0.105,0.006,-0.105,0.000,0.039,0.021,-88.794,0.020,-0.001,-0.537,0.000,-0.009,0.000,0.000,-0.002,0.000,-0.962,-0.032,0.250,0.000,1,1,1,1,-0.002,-0.006,0.031,-0.238,0.004,0.005,0.001,0.001,0.238,0.005,0.000,0
20260703_212530,case01_boxes_2layer,6,213.5,1.000,28.607,419.072,-1.419,755.433,-10.736,0.000,0.175,38.656,-0.384,0.000,-0.111,0.382,-0.119,0.000,0.041,0.021,-88.851,0.020,0.001,-0.571,0.000,-0.010,0.000,0.000,-0.011,0.005,-0.986,-0.033,0.256,0.000,1,1,1,1,0.002,0.006,0.041,0.283,0.005,0.005,0.000,0.000,0.283,0.005,0.000,0
20260703_212530,case01_boxes_2layer,6,213.5,1.000,28.712,417.953,-1.419,755.451,-10.700,0.000,0.162,38.523,0.367,0.000,-0.129,-0.370,-0.122,0.000,0.043,0.021,-88.908,0.019,0.000,-0.568,0.000,-0.009,0.000,0.000,0.005,-0.005,-1.009,-0.034,0.250,0.000,1,1,1,1,-0.002,-0.006,0.030,-0.237,0.005,0.005,0.001,0.001,0.237,0.005,0.000,0
20260703_212530,case01_boxes_2layer,6,213.5,1.000,28.819,416.798,-1.419,755.468,-10.700,0.000,0.151,38.525,-0.007,0.000,-0.110,0.005,-0.110,0.000,0.044,0.021,-88.967,0.019,-0.001,-0.599,0.000,-0.009,0.000,0.000,-0.002,0.000,-1.011,-0.034,0.250,0.000,1,1,1,1,-0.002,-0.006,0.030,-0.237,0.004,0.005,0.001,0.001,0.237,0.005,0.000,0
20260703_212530,case01_boxes_2layer,6,213.5,1.000,28.924,415.682,-1.419,755.482,-10.739,0.000,0.139,38.662,-0.382,0.000,-0.118,0.380,-0.125,0.000,0.046,0.021,-89.027,0.016,0.000,-0.594,0.000,-0.010,0.000,0.000,-0.010,0.005,-1.033,-0.035,0.255,0.000,1,1,1,1,0.002,0.006,0.041,0.283,0.005,0.005,0.000,0.000,0.283,0.005,0.000,0
20260703_212530,case01_boxes_2layer,6,213.5,1.000,29.031,414.527,-1.419,755.496,-10.702,0.000,0.126,38.529,0.368,0.000,-0.133,-0.370,-0.127,0.000,0.048,0.021,-89.090,0.015,0.001,-0.629,0.000,-0.010,0.000,0.000,0.006,-0.005,-1.049,-0.035,0.250,0.000,1,1,1,1,-0.002,-0.006,0.030,-0.237,0.005,0.005,0.001,0.001,0.237,0.005,0.000,0
20260703_212530,case01_boxes_2layer,6,213.5,1.000,29.143,413.325,-1.419,755.510,-10.740,0.000,0.114,38.666,-0.381,-0.001,-0.121,0.379,-0.127,0.000,0.049,0.021,-89.156,0.014,-0.001,-0.663,0.000,-0.011,0.000,0.000,-0.010,0.005,-1.064,-0.036,0.255,0.000,1,1,1,1,0.002,0.006,0.041,0.283,0.005,0.005,0.000,0.000,0.283,0.005,0.000,0
20260703_212530,case01_boxes_2layer,6,213.5,1.000,29.251,412.169,-1.419,755.521,-10.703,0.000,0.100,38.532,0.369,0.000,-0.135,-0.371,-0.130,0.000,0.050,0.021,-89.221,0.011,0.001,-0.651,0.000,-0.010,0.000,0.000,0.006,-0.005,-1.079,-0.036,0.250,0.000,1,1,1,1,-0.002,-0.006,0.030,-0.237,0.005,0.005,0.001,0.001,0.237,0.005,0.000,0
20260703_212530,case01_boxes_2layer,6,213.5,1.000,29.351,411.097,-1.419,755.530,-10.703,0.000,0.088,38.534,-0.005,0.000,-0.117,0.003,-0.117,0.000,0.051,0.021,-89.282,0.008,0.000,-0.612,0.000,-0.010,0.000,0.000,-0.001,0.000,-1.076,-0.036,0.250,0.000,1,1,1,1,-0.002,-0.006,0.030,-0.237,0.005,0.005,0.001,0.001,0.237,0.005,0.000,0
20260703_212530,case01_boxes_2layer,6,213.5,1.000,29.464,409.891,-1.419,755.539,-10.741,0.000,0.076,38.670,-0.380,-0.001,-0.128,0.378,-0.133,0.000,0.051,0.021,-89.352,0.007,-0.001,-0.695,0.000,-0.011,0.000,0.000,-0.009,0.005,-1.093,-0.037,0.255,0.000,1,1,1,1,0.002,0.006,0.041,0.283,0.005,0.005,0.001,0.001,0.283,0.005,0.000,0
20260703_212530,case01_boxes_2layer,6,213.5,1.000,29.571,408.737,-1.419,755.547,-10.704,0.000,0.062,38.536,0.370,0.000,-0.138,-0.371,-0.134,0.000,0.052,0.021,-89.419,0.004,0.001,-0.675,0.000,-0.011,0.000,0.000,0.007,-0.005,-1.109,-0.037,0.249,0.000,1,1,1,1,-0.002,-0.006,0.030,-0.237,0.005,0.005,0.001,0.001,0.237,0.005,0.000,0
20260703_212530,case01_boxes_2layer,6,213.5,1.000,29.676,407.618,-1.419,755.552,-10.705,0.000,0.050,38.538,-0.004,0.000,-0.121,0.003,-0.121,0.000,0.052,0.021,-89.486,0.002,-0.001,-0.660,0.000,-0.011,0.000,0.000,-0.001,0.000,-1.106,-0.037,0.249,0.000,1,1,1,1,-0.002,-0.006,0.030,-0.237,0.005,0.005,0.001,0.001,0.237,0.005,0.000,0
20260703_212530,case01_boxes_2layer,6,213.5,1.000,29.783,406.464,-1.419,755.557,-10.743,0.000,0.036,38.674,-0.378,-0.001,-0.134,0.377,-0.137,0.000,0.052,0.021,-89.555,0.001,0.000,-0.690,0.000,-0.012,0.000,0.000,-0.009,0.005,-1.123,-0.038,0.255,0.000,1,1,1,1,0.002,0.006,0.041,0.282,0.005,0.005,0.001,0.001,0.282,0.005,0.000,0
20260703_212530,case01_boxes_2layer,6,213.5,1.000,29.888,405.345,-1.419,755.560,-10.743,0.000,0.024,38.675,-0.003,0.000,-0.125,0.002,-0.125,0.000,0.052,0.021,-89.622,0.000,0.001,-0.677,0.000,-0.012,0.000,0.000,-0.001,0.000,-1.120,-0.038,0.254,0.000,1,1,1,1,0.002,0.006,0.041,0.282,0.005,0.005,0.001,0.001,0.282,0.005,0.000,0
20260703_212530,case01_boxes_2layer,6,213.5,1.000,29.995,404.192,-1.419,755.561,-10.706,0.000,0.010,38.541,0.372,0.000,-0.140,-0.372,-0.138,0.000,0.052,0.021,-89.693,-0.001,-0.001,-0.704,0.000,-0.011,0.000,0.000,0.007,-0.005,-1.136,-0.038,0.249,0.000,1,1,1,1,-0.002,-0.006,0.030,-0.237,0.005,0.005,0.001,0.001,0.237,0.005,0.000,0
20260703_212530,case01_boxes_2layer,6,213.5,1.000,30.100,403.072,-1.419,755.561,-10.706,0.000,-0.003,38.542,-0.002,0.000,-0.128,0.002,-0.128,0.000,0.052,0.020,-89.762,-0.001,-0.001,-0.690,0.000,-0.011,0.000,0.000,-0.001,0.000,-1.133,-0.038,0.249,0.000,1,1,1,1,-0.002,-0.006,0.030,-0.237,0.005,0.005,0.001,0.001,0.237,0.005,0.000,0
20260703_212530,case01_boxes_2layer,6,213.5,1.000,30.207,401.916,-1.419,755.560,-10.744,0.000,-0.017,38.677,-0.377,0.000,-0.142,0.376,-0.143,0.000,0.052,0.021,-89.834,-0.002,0.001,-0.723,0.000,-0.012,0.000,0.000,-0.009,0.005,-1.153,-0.039,0.254,0.000,1,1,1,1,0.002,0.006,0.041,0.282,0.005,0.005,0.001,0.001,0.282,0.005,0.000,0
20260703_212530,case01_boxes_2layer,6,213.5,1.000,30.312,400.799,-1.419,755.557,-10.706,0.000,-0.032,38.543,0.373,0.000,-0.144,-0.373,-0.144,0.000,0.052,0.021,-89.904,-0.001,0.000,-0.705,0.000,-0.011,0.000,0.000,0.007,-0.005,-1.172,-0.039,0.249,0.000,1,1,1,1,-0.002,-0.006,0.030,-0.237,0.005,0.005,0.001,0.001,0.237,0.005,0.000,0
20260703_212530,case01_boxes_2layer,6,213.5,1.000,30.419,399.643,-1.419,755.553,-10.707,0.000,-0.045,38.544,-0.001,0.000,-0.131,0.001,-0.131,0.000,0.052,0.020,-89.978,-0.001,-0.001,-0.733,0.000,-0.012,0.000,0.000,-0.001,0.000,-1.175,-0.039,0.249,0.000,1,1,1,1,-0.002,-0.006,0.030,-0.237,0.005,0.005,0.001,0.001,0.237,0.005,0.000,0
20260703_212530,case01_boxes_2layer,6,213.5,1.000,30.531,398.443,-1.419,755.547,-10.707,0.000,-0.061,38.545,-0.001,0.000,-0.161,0.001,-0.161,0.000,0.052,0.021,-90.055,0.000,0.001,-0.775,0.000,-0.012,0.000,0.000,-0.002,0.000,-1.216,-0.038,0.249,0.000,1,1,1,1,-0.002,-0.006,0.030,-0.237,0.005,0.005,0.001,0.001,0.237,0.005,0.000,0
20260703_212530,case01_boxes_2layer,6,213.5,1.000,30.639,397.286,-1.419,755.539,-10.707,0.000,-0.074,38.545,-0.001,0.000,-0.132,0.001,-0.132,0.000,0.052,0.020,-90.130,0.000,-0.001,-0.750,0.000,-0.012,0.000,0.000,-0.001,0.000,-1.221,-0.041,0.249,0.000,1,1,1,1,-0.002,-0.006,0.030,-0.237,0.005,0.005,0.001,0.001,0.237,0.005,0.000,0
20260703_212530,case01_boxes_2layer,6,213.5,1.000,30.743,396.168,-1.419,755.530,-10.744,0.000,-0.089,38.680,-0.375,0.000,-0.154,0.375,-0.152,0.000,0.052,0.020,-90.204,0.001,0.000,-0.735,0.000,-0.013,0.000,0.000,-0.010,0.005,-1.247,-0.039,0.254,0.000,1,1,1,1,0.002,0.006,0.041,0.282,0.006,0.006,0.001,0.001,0.282,0.006,0.000,0
20260703_212530,case01_boxes_2layer,6,213.5,1.000,30.851,395.012,-1.419,755.520,-10.707,0.000,-0.104,38.546,0.375,0.000,-0.151,-0.374,-0.153,0.001,0.052,0.021,-90.281,0.003,0.001,-0.770,0.000,-0.012,0.000,0.000,0.006,-0.005,-1.274,-0.039,0.248,0.000,1,1,1,1,-0.002,-0.006,0.030,-0.237,0.006,0.006,0.001,0.001,0.237,0.006,0.000,0
20260703_212530,case01_boxes_2layer,6,213.5,1.000,30.955,393.894,-1.419,755.508,-10.707,0.000,-0.119,38.546,0.001,0.000,-0.142,0.000,-0.142,0.000,0.053,0.020,-90.356,0.004,-0.001,-0.753,0.000,-0.012,0.000,0.000,-0.002,0.000,-1.281,-0.040,0.248,0.000,1,1,1,1,-0.002,-0.006,0.030,-0.237,0.006,0.006,0.001,0.001,0.237,0.006,0.000,0
20260703_212530,case01_boxes_2layer,6,213.5,1.000,31.063,392.738,-1.419,755.494,-10.744,0.000,-0.134,38.681,-0.373,0.000,-0.157,0.375,-0.154,0.000,0.053,0.020,-90.435,0.005,0.000,-0.790,0.000,-0.013,0.000,0.000,-0.009,0.005,-1.208,-0.040,0.254,0.000,1,1,1,1,0.002,0.006,0.041,0.282,0.005,0.005,0.001,0.001,0.282,0.005,0.000,0
20260703_212530,case01_boxes_2layer,6,213.5,1.000,31.168,391.619,-1.419,755.479,-10.744,0.000,-0.149,38.681,0.001,0.000,-0.146,0.000,-0.146,0.000,0.054,0.020,-90.513,0.006,0.001,-0.775,0.000,-0.013,0.000,0.000,-0.002,0.000,-1.320,-0.041,0.254,0.000,1,1,1,1,0.002,0.006,0.041,0.282,0.007,0.007,0.001,0.001,0.282,0.007,0.000,0
20260703_212530,case01_boxes_2layer,6,213.5,1.000,31.280,390.417,-1.419,755.461,-10.706,0.000,-0.165,38.547,0.376,0.000,-0.158,-0.375,-0.162,0.000,0.055,0.020,-90.597,0.008,-0.001,-0.842,0.000,-0.013,0.000,0.000,0.006,-0.005,-1.246,-0.042,0.248,0.000,1,1,1,1,-0.002,-0.006,0.030,-0.237,0.004,0.005,0.001,0.001,0.237,0.005,0.000,0
20260703_212530,case01_boxes_2layer,6,213.5,1.000,31.387,389.262,-1.419,755.442,-10.743,0.000,-0.181,38.682,-0.372,0.000,-0.167,0.374,-0.163,0.000,0.055,0.020,-90.679,0.009,0.001,-0.826,0.000,-0.014,0.000,0.000,-0.010,0.005,-1.280,-0.043,0.253,0.000,1,1,1,1,0.002,0.006,0.041,0.282,0.005,0.006,0.001,0.001,0.282,0.006,0.000,0
20260703_212530,case01_boxes_2layer,6,213.5,1.000,31.500,388.059,-1.419,755.421,-10.706,0.000,-0.197,38.547,0.377,0.000,-0.160,-0.375,-0.165,0.000,0.057,0.020,-90.766,0.011,-0.001,-0.868,0.000,-0.013,0.000,0.000,0.006,-0.005,-1.314,-0.044,0.248,0.000,1,1,1,1,-0.002,-0.006,0.030,-0.237,0.005,0.005,0.001,0.001,0.237,0.005,0.000,0
20260703_212530,case01_boxes_2layer,6,213.5,1.000,31.607,386.906,-1.419,755.398,-10.743,0.000,-0.215,38.681,-0.370,0.000,-0.176,0.373,-0.171,0.000,0.058,0.020,-90.851,0.011,0.001,-0.848,0.000,-0.014,0.000,0.000,-0.010,0.005,-1.351,-0.045,0.253,0.000,1,1,1,1,0.002,0.006,0.041,0.282,0.006,0.006,0.001,0.001,0.282,0.006,0.000,0
20260703_212530,case01_boxes_2layer,6,213.5,1.000,31.712,385.786,-1.419,755.375,-10.705,0.000,-0.232,38.547,0.378,0.000,-0.169,-0.375,-0.175,0.000,0.059,0.020,-90.935,0.012,0.000,-0.837,0.000,-0.014,0.000,0.000,0.005,-0.005,-1.389,-0.047,0.248,0.000,1,1,1,1,-0.002,-0.006,0.030,-0.237,0.006,0.006,0.001,0.001,0.237,0.006,0.000,0
20260703_212530,case01_boxes_2layer,6,213.5,1.000,31.819,384.632,-1.419,755.349,-10.704,0.000,-0.248,38.546,0.004,0.000,-0.159,-0.001,-0.159,0.000,0.060,0.020,-91.022,0.013,-0.001,-0.876,0.000,-0.014,0.000,0.000,-0.002,0.000,-1.404,-0.047,0.248,0.000,1,1,1,1,-0.002,-0.006,0.030,-0.237,0.006,0.006,0.001,0.001,0.237,0.006,0.000,0
20260703_212530,case01_boxes_2layer,6,213.5,1.000,31.923,383.514,-1.419,755.321,-10.741,0.000,-0.266,38.681,-0.369,0.000,-0.185,0.372,-0.178,0.000,0.061,0.020,-91.109,0.013,0.000,-0.864,0.000,-0.015,0.000,0.000,-0.010,0.005,-1.442,-0.045,0.253,0.000,1,1,1,1,0.002,0.006,0.041,0.282,0.007,0.007,0.001,0.001,0.282,0.007,0.000,0
20260703_212530,case01_boxes_2layer,6,213.5,1.000,32.036,382.311,-1.419,755.290,-10.703,0.000,-0.283,38.546,0.379,0.000,-0.170,-0.375,-0.178,0.000,0.063,0.020,-91.203,0.014,0.000,-0.942,0.000,-0.014,0.000,0.000,0.006,-0.005,-1.369,-0.046,0.248,0.000,1,1,1,1,-0.002,-0.006,0.030,-0.237,0.005,0.005,0.001,0.001,0.237,0.005,0.000,0
20260703_212530,case01_boxes_2layer,6,213.5,1.000,32.143,381.157,-1.419,755.259,-10.740,0.000,-0.302,38.680,-0.367,0.000,-0.190,0.372,-0.181,0.000,0.064,0.020,-91.295,0.013,0.000,-0.916,0.000,-0.015,0.000,0.000,-0.010,0.005,-1.411,-0.047,0.253,0.000,1,1,1,1,0.002,0.006,0.041,0.282,0.006,0.006,0.001,0.001,0.282,0.006,0.000,0
20260703_212530,case01_boxes_2layer,6,213.5,1.000,32.248,380.039,-1.418,755.226,-10.740,0.000,-0.319,38.680,0.006,0.000,-0.169,-0.002,-0.169,0.000,0.065,0.020,-91.385,0.013,0.001,-0.901,0.000,-0.016,0.000,0.000,-0.002,0.000,-1.429,-0.048,0.253,0.000,1,1,1,1,0.002,0.006,0.041,0.281,0.006,0.006,0.001,0.001,0.281,0.006,0.000,0
20260703_212530,case01_boxes_2layer,6,213.5,1.000,32.355,378.884,-1.418,755.190,-10.702,0.000,-0.337,38.545,0.380,0.000,-0.179,-0.376,-0.189,0.000,0.067,0.020,-91.479,0.013,-0.001,-0.943,0.000,-0.015,0.000,0.000,0.005,-0.005,-1.474,-0.050,0.248,0.000,1,1,1,1,-0.002,-0.006,0.030,-0.236,0.006,0.006,0.001,0.001,0.236,0.006,0.000,0
20260703_212530,case01_boxes_2layer,6,213.5,1.000,32.460,377.767,-1.418,755.154,-10.701,0.000,-0.355,38.544,0.007,0.000,-0.175,-0.002,-0.175,0.000,0.068,0.020,-91.572,0.012,-0.001,-0.927,0.000,-0.015,0.000,0.000,-0.002,0.000,-1.498,-0.050,0.248,0.000,1,1,1,1,-0.002,-0.006,0.030,-0.236,0.006,0.006,0.001,0.001,0.236,0.006,0.000,0
20260703_212530,case01_boxes_2layer,6,213.5,1.000,32.567,376.613,-1.418,755.114,-10.737,0.000,-0.375,38.678,-0.364,0.000,-0.208,0.370,-0.197,0.000,0.069,0.020,-91.669,0.013,0.001,-0.977,0.000,-0.016,0.000,0.000,-0.011,0.005,-1.550,-0.052,0.253,0.000,1,1,1,1,0.002,0.006,0.041,0.281,0.007,0.007,0.001,0.001,0.281,0.007,0.000,0
20260703_212530,case01_boxes_2layer,6,213.5,1.000,32.671,375.497,-1.418,755.074,-10.699,0.000,-0.394,38.543,0.382,0.000,-0.190,-0.376,-0.202,0.000,0.070,0.020,-91.765,0.012,0.000,-0.959,0.000,-0.016,0.000,0.000,0.005,-0.005,-1.599,-0.050,0.248,0.000,1,1,1,1,-0.002,-0.006,0.030,-0.236,0.007,0.007,0.002,0.002,0.236,0.007,0.000,0
20260703_212530,case01_boxes_2layer,6,213.5,1.000,32.776,374.381,-1.418,755.031,-10.698,0.000,-0.413,38.542,0.009,0.000,-0.185,-0.003,-0.185,0.000,0.072,0.020,-91.863,0.012,-0.001,-0.975,0.000,-0.016,0.000,0.000,-0.003,0.000,-1.627,-0.051,0.247,0.000,1,1,1,1,-0.002,-0.006,0.030,-0.236,0.007,0.007,0.002,0.002,0.236,0.007,0.000,0
20260703_212530,case01_boxes_2layer,6,213.5,1.000,32.876,373.307,-1.418,754.989,-10.697,0.000,-0.431,38.541,0.009,0.000,-0.182,-0.003,-0.182,0.000,0.073,0.020,-91.958,0.011,0.000,-0.953,0.000,-0.016,0.000,0.000,-0.002,0.000,-1.654,-0.048,0.247,0.000,1,1,1,1,-0.002,-0.006,0.030,-0.236,0.007,0.007,0.002,0.002,0.236,0.007,0.000,0
20260703_212530,case01_boxes_2layer,6,213.5,1.000,32.983,372.155,-1.418,754.941,-10.734,0.000,-0.450,38.675,-0.364,0.000,-0.190,0.370,-0.177,0.000,0.074,0.020,-92.060,0.009,0.000,-1.021,0.000,-0.017,0.000,0.001,-0.005,0.005,-1.485,-0.050,0.253,0.000,1,1,1,1,0.002,0.006,0.041,0.281,0.005,0.006,0.001,0.001,0.281,0.006,0.000,0
20260703_212530,case01_boxes_2layer,6,213.5,1.000,33.088,371.038,-1.418,754.893,-10.733,0.000,-0.468,38.674,0.009,0.000,-0.177,-0.003,-0.177,0.000,0.074,0.020,-92.158,0.005,0.001,-0.983,0.000,-0.017,0.000,0.000,0.000,0.000,-1.529,-0.051,0.253,0.000,1,1,1,1,0.002,0.006,0.041,0.281,0.006,0.006,0.001,0.001,0.281,0.006,0.000,0
20260703_212530,case01_boxes_2layer,6,213.5,1.000,33.195,369.884,-1.418,754.841,-10.694,0.000,-0.487,38.539,0.384,0.000,-0.195,-0.376,-0.210,0.000,0.075,0.020,-92.261,0.005,0.000,-1.024,0.000,-0.016,0.000,0.000,0.005,-0.005,-1.603,-0.054,0.247,0.000,1,1,1,1,-0.002,-0.006,0.030,-0.236,0.006,0.007,0.002,0.002,0.236,0.007,0.000,0
20260703_212530,case01_boxes_2layer,6,213.5,1.000,33.307,368.684,-1.418,754.785,-10.730,0.000,-0.511,38.672,-0.359,0.000,-0.236,0.369,-0.221,0.000,0.075,0.020,-92.370,0.006,0.000,-1.089,0.000,-0.018,0.000,-0.001,-0.012,0.005,-1.687,-0.057,0.253,0.000,1,1,1,1,0.002,0.006,0.041,0.281,0.008,0.008,0.001,0.001,0.281,0.008,0.000,0
20260703_212530,case01_boxes_2layer,6,213.5,1.000,33.407,367.613,-1.418,754.733,-10.729,0.000,-0.532,38.671,0.013,0.000,-0.205,-0.004,-0.206,0.000,0.076,0.020,-92.470,0.007,0.000,-0.998,0.000,-0.018,0.000,0.000,-0.004,0.000,-1.743,-0.055,0.253,0.000,1,1,1,1,0.002,0.005,0.041,0.281,0.008,0.008,0.001,0.001,0.281,0.008,0.000,0
20260703_212530,case01_boxes_2layer,6,213.5,1.000,33.515,366.458,-1.418,754.674,-10.690,0.000,-0.553,38.536,0.387,0.001,-0.213,-0.377,-0.231,0.001,0.077,0.020,-92.580,0.010,-0.001,-1.104,0.000,-0.018,0.000,0.000,0.003,-0.005,-1.702,-0.057,0.247,0.000,1,1,1,1,-0.002,-0.006,0.030,-0.236,0.006,0.007,0.002,0.002,0.236,0.007,0.000,0
20260703_212530,case01_boxes_2layer,6,213.5,1.000,33.620,365.341,-1.418,754.614,-10.689,0.000,-0.574,38.535,0.014,0.000,-0.212,-0.004,-0.213,0.001,0.078,0.020,-92.690,0.012,-0.001,-1.100,0.000,-0.018,0.000,0.000,-0.005,0.000,-1.751,-0.059,0.247,0.000,1,1,1,1,-0.002,-0.006,0.030,-0.236,0.007,0.007,0.002,0.002,0.236,0.007,0.000,0
20260703_212530,case01_boxes_2layer,6,213.5,1.000,33.731,364.144,-1.418,754.548,-10.687,0.000,-0.600,38.533,0.019,0.001,-0.262,-0.006,-0.263,0.001,0.080,0.020,-92.811,0.015,0.001,-1.212,0.000,-0.019,0.000,0.000,-0.006,0.000,-1.862,-0.063,0.247,0.000,1,1,1,1,-0.002,-0.006,0.030,-0.236,0.008,0.008,0.002,0.002,0.236,0.008,0.000,0
20260703_212530,case01_boxes_2layer,6,213.5,1.000,33.839,362.987,-1.418,754.482,-10.685,0.000,-0.623,38.532,0.016,0.000,-0.222,-0.005,-0.223,0.001,0.081,0.020,-92.931,0.017,-0.002,-1.199,0.000,-0.019,0.000,0.000,-0.005,0.000,-1.912,-0.060,0.247,0.000,1,1,1,1,-0.002,-0.006,0.030,-0.236,0.008,0.008,0.002,0.002,0.236,0.008,0.000,0
20260703_212530,case01_boxes_2layer,6,213.5,1.000,33.951,361.790,-1.418,754.410,-10.683,0.000,-0.650,38.530,0.021,0.000,-0.270,-0.006,-0.271,0.001,0.083,0.020,-93.059,0.019,0.001,-1.275,0.000,-0.020,0.000,0.000,-0.005,0.000,-1.889,-0.063,0.247,0.000,1,1,1,1,-0.002,-0.006,0.030,-0.236,0.007,0.007,0.002,0.002,0.236,0.007,0.000,0
20260703_212530,case01_boxes_2layer,6,213.5,1.000,34.051,360.721,-1.418,754.344,-10.681,0.000,-0.672,38.529,0.018,0.000,-0.228,-0.005,-0.229,0.001,0.085,0.020,-93.175,0.019,0.000,-1.165,0.000,-0.020,0.000,0.000,-0.004,0.000,-1.937,-0.065,0.247,0.000,1,1,1,1,-0.002,-0.006,0.030,-0.236,0.008,0.008,0.002,0.002,0.236,0.008,0.000,0
20260703_212530,case01_boxes_2layer,6,213.5,1.000,34.160,359.562,-1.418,754.269,-10.679,0.000,-0.696,38.527,0.019,0.000,-0.237,-0.006,-0.238,0.001,0.087,0.020,-93.304,0.022,-0.001,-1.287,0.000,-0.021,0.000,0.000,-0.005,0.000,-1.986,-0.067,0.247,0.000,1,1,1,1,-0.002,-0.006,0.030,-0.236,0.008,0.008,0.002,0.002,0.236,0.008,0.000,0
20260703_212530,case01_boxes_2layer,6,213.5,1.000,34.264,358.449,-1.418,754.195,-10.714,0.000,-0.725,38.660,-0.349,0.000,-0.287,0.365,-0.265,0.000,0.089,0.020,-93.430,0.022,0.000,-1.263,0.000,-0.022,0.000,-0.001,-0.013,0.005,-2.075,-0.065,0.252,0.000,1,1,1,1,0.002,0.005,0.040,0.280,0.009,0.010,0.002,0.002,0.280,0.010,0.000,0
20260703_212530,case01_boxes_2layer,6,213.5,1.000,34.376,357.251,-1.418,754.112,-10.675,0.000,-0.749,38.524,0.394,0.000,-0.240,-0.378,-0.264,0.001,0.092,0.020,-93.569,0.024,0.000,-1.388,0.000,-0.021,0.000,0.000,0.004,-0.005,-2.008,-0.067,0.247,0.000,1,1,1,1,-0.002,-0.006,0.030,-0.235,0.007,0.008,0.002,0.002,0.235,0.008,0.000,0
20260703_212530,case01_boxes_2layer,6,213.5,1.000,34.476,356.182,-1.418,754.035,-10.673,0.000,-0.773,38.522,0.022,0.000,-0.246,-0.006,-0.247,0.000,0.094,0.020,-93.695,0.022,0.000,-1.261,0.000,-0.022,0.000,0.000,-0.004,0.000,-2.060,-0.069,0.247,0.000,1,1,1,1,-0.002,-0.006,0.030,-0.235,0.008,0.008,0.002,0.002,0.235,0.008,0.000,0
20260703_212530,case01_boxes_2layer,6,213.5,1.000,34.583,355.031,-1.418,753.950,-10.707,0.000,-0.803,38.654,-0.345,0.000,-0.301,0.364,-0.277,0.000,0.096,0.020,-93.833,0.023,0.000,-1.379,0.000,-0.023,0.000,0.000,-0.012,0.005,-2.153,-0.067,0.252,0.000,1,1,1,1,0.002,0.005,0.040,0.280,0.009,0.010,0.002,0.002,0.280,0.010,0.000,0
20260703_212530,case01_boxes_2layer,6,213.5,1.000,34.688,353.917,-1.418,753.864,-10.705,0.000,-0.829,38.652,0.024,0.000,-0.254,-0.007,-0.255,0.000,0.099,0.020,-93.969,0.022,0.001,-1.357,0.000,-0.023,0.000,0.000,-0.003,0.000,-2.066,-0.069,0.252,0.000,1,1,1,1,0.002,0.005,0.040,0.280,0.008,0.008,0.002,0.002,0.280,0.008,0.000,0
20260703_212530,case01_boxes_2layer,6,213.5,1.000,34.795,352.767,-1.418,753.773,-10.665,0.000,-0.854,38.517,0.398,0.000,-0.256,-0.378,-0.284,0.001,0.101,0.020,-94.111,0.022,0.000,-1.424,0.000,-0.023,0.000,0.001,0.004,-0.005,-2.154,-0.072,0.247,0.000,1,1,1,1,-0.002,-0.006,0.030,-0.235,0.008,0.008,0.002,0.002,0.235,0.008,0.000,0
20260703_212530,case01_boxes_2layer,6,213.5,1.000,34.900,351.651,-1.418,753.682,-10.662,0.000,-0.881,38.515,0.027,0.000,-0.267,-0.007,-0.268,0.000,0.103,0.020,-94.252,0.021,-0.001,-1.406,0.000,-0.023,0.000,0.000,-0.004,0.000,-2.215,-0.074,0.247,0.000,1,1,1,1,-0.002,-0.006,0.030,-0.235,0.009,0.009,0.003,0.003,0.235,0.009,0.000,0
20260703_212530,case01_boxes_2layer,6,213.5,1.000,35.007,350.503,-1.418,753.585,-10.696,0.000,-0.914,38.646,-0.339,0.000,-0.324,0.362,-0.297,0.000,0.105,0.020,-94.399,0.022,0.001,-1.477,0.000,-0.025,0.000,0.000,-0.012,0.005,-2.173,-0.073,0.252,0.000,1,1,1,1,0.002,0.005,0.040,0.280,0.008,0.008,0.002,0.002,0.280,0.008,0.000,0
20260703_212530,case01_boxes_2layer,6,213.5,1.000,35.107,349.436,-1.418,753.492,-10.693,0.000,-0.941,38.644,0.029,0.000,-0.273,-0.008,-0.274,0.000,0.107,0.020,-94.539,0.019,0.000,-1.396,0.000,-0.025,0.000,0.000,-0.004,0.000,-2.238,-0.075,0.252,0.000,1,1,1,1,0.002,0.005,0.040,0.280,0.009,0.009,0.002,0.002,0.280,0.009,0.000,0
20260703_212530,case01_boxes_2layer,6,213.5,1.000,35.212,348.321,-1.418,753.392,-10.653,0.000,-0.969,38.509,0.403,0.000,-0.278,-0.379,-0.310,0.001,0.109,0.020,-94.687,0.020,0.000,-1.483,0.000,-0.025,0.000,0.000,0.003,-0.005,-2.349,-0.079,0.247,0.000,1,1,1,1,-0.002,-0.006,0.030,-0.235,0.009,0.010,0.003,0.003,0.235,0.010,0.000,0
20260703_212530,case01_boxes_2layer,6,213.5,1.000,35.319,347.172,-1.418,753.285,-10.650,0.000,-0.997,38.506,0.033,0.000,-0.287,-0.008,-0.288,0.001,0.111,0.020,-94.843,0.020,-0.001,-1.558,0.000,-0.025,0.000,0.000,-0.005,0.000,-2.430,-0.076,0.247,0.000,1,1,1,1,-0.002,-0.006,0.030,-0.235,0.010,0.010,0.003,0.003,0.235,0.010,0.000,0
20260703_212530,case01_boxes_2layer,6,213.5,1.000,35.431,345.979,-1.418,753.171,-10.646,0.000,-1.032,38.504,0.040,0.000,-0.344,-0.010,-0.346,0.001,0.113,0.020,-95.008,0.021,0.001,-1.653,0.000,-0.026,0.000,0.000,-0.005,0.000,-2.438,-0.077,0.247,0.000,1,1,1,1,-0.002,-0.005,0.030,-0.235,0.010,0.010,0.003,0.003,0.235,0.010,0.000,0
20260703_212530,case01_boxes_2layer,6,213.5,1.000,35.539,344.826,-1.418,753.057,-10.643,0.000,-1.058,38.502,0.031,0.000,-0.259,-0.007,-0.261,0.000,0.115,0.020,-95.169,0.016,-0.001,-1.602,0.000,-0.025,0.000,0.001,0.002,0.000,-2.372,-0.075,0.246,0.000,1,1,1,1,-0.002,-0.006,0.030,-0.235,0.009,0.009,0.003,0.003,0.235,0.009,0.000,0
20260703_212530,case01_boxes_2layer,6,213.5,1.000,35.647,343.678,-1.418,752.941,-10.676,0.000,-1.092,38.633,-0.330,-0.001,-0.345,0.361,-0.313,0.000,0.116,0.020,-95.329,0.012,0.001,-1.600,0.000,-0.026,0.000,0.000,-0.010,0.005,-2.379,-0.080,0.252,0.000,1,1,1,1,0.002,0.005,0.040,0.279,0.009,0.010,0.003,0.003,0.279,0.010,0.000,0
20260703_212530,case01_boxes_2layer,6,213.5,1.000,35.751,342.569,-1.418,752.825,-10.635,0.000,-1.122,38.497,0.411,0.000,-0.299,-0.380,-0.336,0.001,0.117,0.020,-95.485,0.012,0.000,-1.568,0.000,-0.026,0.000,0.000,0.002,-0.005,-2.537,-0.080,0.246,0.000,1,1,1,1,-0.002,-0.006,0.030,-0.235,0.011,0.011,0.003,0.003,0.235,0.011,0.000,0
20260703_212530,case01_boxes_2layer,6,213.5,1.000,35.859,341.418,-1.418,752.701,-10.630,0.000,-1.153,38.494,0.041,0.000,-0.315,-0.010,-0.317,0.001,0.119,0.020,-95.652,0.014,-0.001,-1.667,0.000,-0.027,0.000,0.000,-0.007,0.000,-2.510,-0.084,0.246,0.000,1,1,1,1,-0.002,-0.006,0.030,-0.235,0.009,0.010,0.003,0.003,0.235,0.010,0.000,0
20260703_212530,case01_boxes_2layer,6,213.5,1.000,35.959,340.353,-1.418,752.584,-10.626,0.000,-1.186,38.491,0.044,0.000,-0.325,-0.011,-0.327,0.001,0.120,0.020,-95.811,0.016,0.000,-1.588,0.000,-0.028,0.000,0.000,-0.008,0.000,-2.638,-0.089,0.246,0.000,1,1,1,1,-0.002,-0.006,0.030,-0.235,0.011,0.011,0.003,0.003,0.235,0.011,0.000,0
20260703_212530,case01_boxes_2layer,6,213.5,1.000,36.067,339.207,-1.418,752.453,-10.658,0.000,-1.227,38.621,-0.316,0.000,-0.410,0.357,-0.375,0.001,0.122,0.020,-95.988,0.021,0.001,-1.769,0.000,-0.029,0.000,-0.001,-0.018,0.005,-2.654,-0.089,0.252,0.000,1,1,1,1,0.002,0.005,0.040,0.279,0.010,0.010,0.003,0.003,0.279,0.010,0.000,0
20260703_212530,case01_boxes_2layer,6,213.5,1.000,36.172,338.096,-1.418,752.323,-10.616,0.000,-1.261,38.484,0.421,0.001,-0.339,-0.383,-0.383,0.002,0.125,0.020,-96.164,0.024,0.000,-1.765,0.000,-0.030,0.000,0.000,-0.002,-0.005,-2.831,-0.095,0.246,0.000,1,1,1,1,-0.002,-0.005,0.030,-0.234,0.011,0.012,0.003,0.003,0.234,0.012,0.000,0
20260703_212530,case01_boxes_2layer,6,213.5,1.000,36.279,336.951,-1.418,752.184,-10.610,0.000,-1.296,38.481,0.052,0.001,-0.356,-0.013,-0.359,0.002,0.128,0.020,-96.352,0.029,-0.002,-1.878,0.000,-0.031,0.000,-0.001,-0.009,0.000,-2.968,-0.094,0.246,0.000,1,1,1,1,-0.002,-0.005,0.030,-0.234,0.013,0.013,0.003,0.003,0.234,0.013,0.000,0
20260703_212530,case01_boxes_2layer,6,213.5,1.000,36.392,335.755,-1.418,752.035,-10.604,0.000,-1.340,38.477,0.066,0.001,-0.435,-0.016,-0.439,0.002,0.131,0.020,-96.555,0.035,0.001,-2.029,-0.001,-0.032,0.000,-0.001,-0.011,0.000,-3.026,-0.096,0.246,0.000,1,1,1,1,-0.002,-0.005,0.030,-0.234,0.012,0.013,0.003,0.003,0.234,0.013,0.000,0
20260703_212530,case01_boxes_2layer,6,213.5,1.000,36.500,334.613,-1.418,751.888,-10.598,0.001,-1.377,38.473,0.057,0.001,-0.366,-0.013,-0.371,0.001,0.135,0.020,-96.754,0.037,-0.002,-1.994,-0.001,-0.032,0.000,0.000,-0.008,0.000,-2.980,-0.100,0.246,0.000,1,1,1,1,-0.002,-0.006,0.030,-0.234,0.011,0.011,0.004,0.004,0.234,0.011,0.000,0
20260703_212530,case01_boxes_2layer,6,213.5,1.000,36.607,333.470,-1.418,751.736,-10.628,0.001,-1.423,38.602,-0.299,0.000,-0.464,0.353,-0.425,0.001,0.139,0.020,-96.960,0.041,0.001,-2.056,-0.001,-0.034,0.000,-0.001,-0.018,0.005,-3.176,-0.100,0.251,0.000,1,1,1,1,0.002,0.005,0.040,0.278,0.013,0.014,0.003,0.003,0.278,0.014,0.000,0
20260703_212530,case01_boxes_2layer,6,213.5,1.000,36.720,332.279,-1.418,751.574,-10.584,0.001,-1.461,38.465,0.435,0.001,-0.380,-0.384,-0.431,0.002,0.143,0.020,-97.180,0.045,-0.001,-2.200,-0.001,-0.034,0.000,0.000,-0.001,-0.005,-3.183,-0.107,0.246,0.000,1,1,1,1,-0.002,-0.005,0.029,-0.234,0.012,0.012,0.004,0.004,0.234,0.012,0.000,0
20260703_212530,case01_boxes_2layer,6,213.5,1.000,36.820,331.218,-1.418,751.424,-10.578,0.001,-1.501,38.461,0.068,0.000,-0.403,-0.016,-0.408,0.001,0.148,0.020,-97.382,0.043,0.000,-2.017,-0.001,-0.035,0.000,0.000,-0.009,0.000,-3.334,-0.106,0.246,0.000,1,1,1,1,-0.002,-0.005,0.029,-0.233,0.013,0.014,0.004,0.004,0.233,0.014,0.000,0
20260703_212530,case01_boxes_2layer,6,213.5,1.000,36.927,330.077,-1.417,751.259,-10.606,0.001,-1.550,38.589,-0.288,0.000,-0.491,0.350,-0.448,0.001,0.153,0.020,-97.604,0.048,0.001,-2.226,-0.001,-0.037,0.000,-0.001,-0.016,0.005,-3.351,-0.112,0.251,0.000,1,1,1,1,0.002,0.005,0.040,0.278,0.013,0.014,0.004,0.004,0.278,0.014,0.000,0
20260703_212530,case01_boxes_2layer,6,213.5,1.000,37.027,329.019,-1.417,751.102,-10.599,0.001,-1.592,38.584,0.073,0.000,-0.412,-0.016,-0.418,0.001,0.157,0.020,-97.815,0.045,0.000,-2.111,-0.001,-0.038,0.000,0.000,-0.008,0.000,-3.315,-0.111,0.251,0.000,1,1,1,1,0.002,0.005,0.040,0.277,0.012,0.012,0.004,0.004,0.277,0.012,0.000,0
20260703_212530,case01_boxes_2layer,6,213.5,1.000,37.135,327.881,-1.417,750.927,-10.554,0.001,-1.632,38.448,0.446,0.000,-0.408,-0.385,-0.466,0.002,0.162,0.020,-98.048,0.049,0.000,-2.325,-0.001,-0.038,0.000,0.001,0.000,-0.005,-3.342,-0.112,0.246,0.000,1,1,1,1,-0.002,-0.005,0.029,-0.233,0.011,0.011,0.004,0.004,0.233,0.011,0.000,0
20260703_212530,case01_boxes_2layer,6,213.5,1.000,37.235,326.823,-1.417,750.761,-10.547,0.001,-1.672,38.444,0.073,0.000,-0.397,-0.015,-0.403,0.001,0.166,0.020,-98.266,0.041,0.000,-2.179,-0.001,-0.038,0.000,0.001,-0.002,0.000,-3.343,-0.112,0.246,0.000,1,1,1,1,-0.002,-0.005,0.029,-0.233,0.011,0.011,0.004,0.004,0.233,0.011,0.000,0
20260703_212530,case01_boxes_2layer,6,213.5,1.000,37.335,325.766,-1.417,750.590,-10.539,0.001,-1.715,38.440,0.081,-0.001,-0.426,-0.017,-0.433,0.001,0.170,0.020,-98.486,0.038,0.000,-2.206,-0.001,-0.038,0.000,0.000,-0.006,0.000,-3.538,-0.119,0.246,0.000,1,1,1,1,-0.002,-0.005,0.029,-0.233,0.013,0.014,0.005,0.004,0.233,0.014,0.000,0
20260703_212530,case01_boxes_2layer,6,213.5,1.000,37.443,324.628,-1.417,750.402,-10.566,0.000,-1.770,38.566,-0.265,-0.001,-0.550,0.345,-0.504,0.001,0.174,0.020,-98.729,0.040,0.000,-2.426,-0.001,-0.040,0.000,-0.001,-0.018,0.005,-3.631,-0.122,0.251,0.000,1,1,1,1,0.002,0.005,0.040,0.277,0.014,0.015,0.004,0.004,0.277,0.015,0.000,0
20260703_212530,case01_boxes_2layer,6,213.5,1.000,37.543,323.573,-1.417,750.222,-10.556,0.000,-1.817,38.561,0.095,0.000,-0.469,-0.021,-0.478,0.001,0.178,0.020,-98.960,0.039,0.000,-2.313,-0.001,-0.041,0.000,0.000,-0.011,0.000,-3.667,-0.123,0.251,0.000,1,1,1,1,0.002,0.005,0.040,0.277,0.013,0.014,0.004,0.004,0.277,0.014,0.000,0
20260703_212530,case01_boxes_2layer,6,213.5,1.000,37.651,322.438,-1.417,750.023,-10.509,0.000,-1.864,38.423,0.471,0.000,-0.472,-0.389,-0.542,0.002,0.182,0.020,-99.217,0.044,0.000,-2.564,-0.001,-0.042,0.000,0.000,-0.006,-0.005,-3.964,-0.126,0.246,0.000,1,1,1,1,-0.002,-0.005,0.029,-0.232,0.016,0.017,0.005,0.005,0.232,0.017,0.000,0
20260703_212530,case01_boxes_2layer,6,213.5,1.000,37.751,321.385,-1.417,749.833,-10.498,0.001,-1.914,38.417,0.107,0.000,-0.499,-0.023,-0.509,0.002,0.187,0.020,-99.462,0.043,-0.001,-2.455,-0.001,-0.043,0.000,-0.001,-0.013,0.000,-4.009,-0.135,0.246,0.000,1,1,1,1,-0.002,-0.005,0.029,-0.232,0.015,0.016,0.005,0.005,0.232,0.016,0.000,0
20260703_212530,case01_boxes_2layer,6,213.5,1.000,37.859,320.250,-1.417,749.622,-10.487,0.001,-1.966,38.410,0.116,0.001,-0.526,-0.025,-0.538,0.002,0.192,0.020,-99.737,0.051,-0.002,-2.747,-0.001,-0.045,0.000,-0.001,-0.016,0.000,-4.273,-0.136,0.246,0.000,1,1,1,1,-0.002,-0.005,0.029,-0.232,0.017,0.018,0.005,0.005,0.232,0.018,0.000,0
20260703_212530,case01_boxes_2layer,6,213.5,1.000,37.959,319.199,-1.417,749.422,-10.475,0.001,-2.019,38.404,0.118,0.001,-0.524,-0.025,-0.537,0.003,0.197,0.020,-100.000,0.052,-0.001,-2.635,-0.001,-0.046,0.000,0.000,-0.014,0.000,-4.315,-0.145,0.246,0.000,1,1,1,1,-0.002,-0.005,0.029,-0.232,0.017,0.018,0.005,0.005,0.232,0.018,0.000,0
20260703_212530,case01_boxes_2layer,6,213.5,1.000,38.068,318.066,-1.417,749.199,-10.497,0.001,-2.086,38.527,-0.217,0.001,-0.670,0.333,-0.620,0.003,0.203,0.020,-100.295,0.060,0.000,-2.947,-0.001,-0.049,0.000,-0.002,-0.025,0.005,-4.439,-0.149,0.251,0.000,1,1,1,1,0.002,0.005,0.040,0.276,0.017,0.018,0.005,0.005,0.276,0.018,0.000,0
20260703_212530,case01_boxes_2layer,6,213.5,1.000,38.176,316.936,-1.417,748.970,-10.446,0.001,-2.141,38.388,0.505,0.001,-0.550,-0.395,-0.633,0.003,0.209,0.020,-100.599,0.064,-0.001,-3.040,-0.001,-0.050,0.000,0.000,-0.009,-0.005,-4.561,-0.153,0.246,0.000,1,1,1,1,-0.002,-0.005,0.029,-0.231,0.017,0.018,0.006,0.006,0.231,0.018,0.000,0
20260703_212530,case01_boxes_2layer,6,213.5,1.000,38.284,315.807,-1.417,748.733,-10.466,0.001,-2.210,38.510,-0.202,0.000,-0.696,0.330,-0.645,0.003,0.216,0.019,-100.914,0.069,-0.001,-3.151,-0.001,-0.052,0.000,-0.001,-0.023,0.005,-4.471,-0.150,0.251,0.000,1,1,1,1,0.002,0.005,0.040,0.275,0.014,0.015,0.006,0.005,0.275,0.015,0.000,0
20260703_212530,case01_boxes_2layer,6,213.5,1.000,38.387,314.726,-1.417,748.501,-10.453,0.001,-2.265,38.503,0.135,0.000,-0.543,-0.027,-0.559,0.002,0.223,0.020,-101.221,0.063,0.000,-3.073,-0.001,-0.052,0.000,0.001,-0.006,0.000,-4.556,-0.153,0.251,0.000,1,1,1,1,0.002,0.005,0.040,0.275,0.015,0.016,0.006,0.006,0.275,0.016,0.000,0
20260703_212530,case01_boxes_2layer,6,213.5,1.000,38.487,313.681,-1.417,748.270,-10.438,0.001,-2.323,38.495,0.151,0.000,-0.588,-0.031,-0.607,0.002,0.228,0.020,-101.524,0.059,0.000,-3.025,-0.001,-0.054,0.000,0.000,-0.012,0.000,-4.880,-0.156,0.251,0.000,1,1,1,1,0.002,0.005,0.040,0.275,0.019,0.020,0.006,0.006,0.275,0.020,0.000,0
20260703_212530,case01_boxes_2layer,6,213.5,1.000,38.588,312.638,-1.416,748.034,-10.421,0.001,-2.385,38.487,0.164,0.000,-0.618,-0.034,-0.638,0.002,0.235,0.020,-101.834,0.060,0.000,-3.101,-0.001,-0.055,0.000,-0.001,-0.015,0.000,-5.013,-0.168,0.251,0.000,1,1,1,1,0.002,0.005,0.040,0.274,0.019,0.020,0.006,0.006,0.274,0.020,0.000,0
20260703_212530,case01_boxes_2layer,6,213.5,1.000,38.691,311.562,-1.416,747.783,-10.366,0.001,-2.449,38.346,0.550,0.000,-0.640,-0.403,-0.742,0.003,0.241,0.020,-102.165,0.067,0.000,-3.313,-0.001,-0.057,-0.001,0.000,-0.014,-0.005,-5.239,-0.176,0.246,0.000,1,1,1,1,-0.002,-0.005,0.029,-0.230,0.020,0.021,0.007,0.006,0.230,0.021,0.000,0
20260703_212530,case01_boxes_2layer,6,213.5,1.000,38.792,310.522,-1.416,747.533,-10.347,0.001,-2.516,38.336,0.191,0.001,-0.672,-0.041,-0.697,0.004,0.248,0.020,-102.498,0.072,-0.001,-3.329,-0.001,-0.059,-0.001,-0.001,-0.021,0.000,-5.392,-0.181,0.246,0.000,1,1,1,1,-0.002,-0.005,0.029,-0.230,0.020,0.021,0.007,0.007,0.230,0.021,0.000,0
20260703_212530,case01_boxes_2layer,6,213.5,1.000,38.895,309.449,-1.416,747.267,-10.327,0.001,-2.587,38.324,0.207,0.001,-0.705,-0.045,-0.733,0.004,0.257,0.019,-102.856,0.081,-0.002,-3.574,-0.001,-0.061,-0.001,-0.001,-0.024,0.000,-5.550,-0.186,0.246,0.000,1,1,1,1,-0.002,-0.005,0.029,-0.230,0.019,0.021,0.007,0.007,0.230,0.021,0.000,0
20260703_212530,case01_boxes_2layer,6,213.5,1.000,39.003,308.332,-1.416,746.981,-10.337,0.001,-2.675,38.440,-0.108,0.001,-0.881,0.307,-0.833,0.005,0.266,0.019,-103.244,0.094,-0.002,-3.887,-0.002,-0.064,0.000,-0.002,-0.034,0.004,-5.811,-0.195,0.251,0.000,1,1,1,1,0.002,0.005,0.040,0.273,0.021,0.023,0.007,0.007,0.273,0.023,0.000,0
20260703_212530,case01_boxes_2layer,6,213.5,1.000,39.111,307.221,-1.416,746.688,-10.277,0.001,-2.749,38.297,0.606,0.002,-0.738,-0.414,-0.860,0.006,0.276,0.019,-103.648,0.101,-0.001,-4.037,-0.002,-0.066,-0.001,0.000,-0.019,-0.005,-6.074,-0.204,0.246,0.000,1,1,1,1,-0.002,-0.005,0.029,-0.229,0.022,0.024,0.008,0.007,0.229,0.024,0.000,0
