run_id,case_name,cargo_count,total_mass_kg,secured_frac,Time,PosX,PosY,PosZ,VelX,VelY,VelZ,SpeedKmh,AccX,AccY,AccZ,LongAcc,LatAcc,VertAcc,Roll,Pitch,Yaw,RollRate,PitchRate,YawRate,AngVelX,AngVelY,AngVelZ,AngAccX,AngAccY,AngAccZ,SteerAngle,TargetSteer,Throttle,Brake,FL_Grounded,FR_Grounded,RL_Grounded,RR_Grounded,FL_ForwardSlip,FR_ForwardSlip,RL_ForwardSlip,RR_ForwardSlip,FL_SideSlip,FR_SideSlip,RL_SideSlip,RR_SideSlip,MaxForwardSlip,MaxSideSlip,RolloverRisk,IsRollover
20260703_202842,case01_baseline_boxes,6,294.5,1.000,0.639,679.395,-1.501,736.112,-0.146,0.448,0.014,1.696,-1.619,0.957,0.080,1.618,0.080,0.958,-0.006,0.057,-89.997,0.158,0.387,0.045,-0.003,0.002,0.006,0.003,0.022,-0.036,12.800,0.380,1.000,0.000,1,1,1,1,-0.004,-0.002,0.737,-1.083,-0.009,-0.008,-0.001,-0.001,1.083,0.009,0.000,0
20260703_202842,case01_baseline_boxes,6,294.5,1.000,0.743,679.367,-1.456,736.115,-0.372,0.386,0.036,1.935,-2.263,-0.615,0.225,2.264,0.224,-0.611,0.015,0.089,-89.969,0.209,0.319,0.275,-0.004,0.007,0.005,-0.011,0.045,-0.014,14.442,0.384,1.000,0.000,1,1,1,1,-0.006,-0.003,0.451,-1.351,-0.011,-0.006,-0.002,-0.002,1.351,0.011,0.000,0
20260703_202842,case01_baseline_boxes,6,294.5,1.000,0.847,679.318,-1.423,736.120,-0.569,0.243,0.057,2.236,-1.967,-1.428,0.203,1.970,0.200,-1.424,0.045,0.116,-89.920,0.293,0.275,0.491,-0.006,0.010,0.004,-0.016,0.033,-0.004,14.447,0.384,1.000,0.000,1,1,1,1,-0.006,-0.003,-0.068,-0.119,-0.012,-0.005,-0.003,-0.003,0.119,0.012,0.000,0
20260703_202842,case01_baseline_boxes,6,294.5,1.000,0.951,679.247,-1.407,736.127,-0.796,0.077,0.079,2.894,-2.276,-1.660,0.223,2.281,0.214,-1.655,0.083,0.140,-89.849,0.388,0.241,0.707,-0.007,0.014,0.003,-0.015,0.036,-0.009,14.245,0.380,1.000,0.000,1,1,1,1,-0.005,-0.003,0.021,0.228,-0.012,-0.003,-0.003,-0.003,0.228,0.012,0.000,0
20260703_202842,case01_baseline_boxes,6,294.5,1.000,1.055,679.155,-1.405,736.136,-0.990,-0.034,0.098,3.582,-1.933,-1.117,0.186,1.937,0.176,-1.112,0.129,0.156,-89.759,0.454,0.157,0.907,-0.008,0.017,0.002,-0.007,0.033,-0.019,13.868,0.371,1.000,0.000,1,1,1,1,-0.005,-0.003,0.097,-0.241,-0.012,-0.003,-0.002,-0.002,0.241,0.012,0.000,0
20260703_202842,case01_baseline_boxes,6,294.5,1.000,1.155,679.045,-1.411,736.146,-1.199,-0.093,0.113,4.349,-2.097,-0.584,0.156,2.100,0.142,-0.579,0.174,0.158,-89.655,0.457,0.023,1.035,-0.008,0.019,-0.001,0.000,0.022,-0.024,13.198,0.354,1.000,0.000,1,1,1,1,-0.004,-0.002,0.134,0.267,-0.010,-0.001,-0.002,-0.002,0.267,0.010,0.000,0
20260703_202842,case01_baseline_boxes,6,294.5,1.000,1.263,678.904,-1.422,736.159,-1.416,-0.103,0.130,5.133,-2.170,-0.101,0.168,2.171,0.150,-0.096,0.221,0.145,-89.528,0.468,-0.136,1.275,-0.007,0.022,-0.003,0.007,0.028,-0.027,12.665,0.341,1.000,0.000,1,1,1,1,-0.004,-0.003,0.123,0.058,-0.010,-0.001,-0.002,-0.002,0.123,0.010,0.000,0
20260703_202842,case01_baseline_boxes,6,294.5,1.000,1.375,678.734,-1.433,736.174,-1.637,-0.078,0.145,5.924,-2.211,0.251,0.148,2.212,0.125,0.255,0.263,0.116,-89.380,0.418,-0.286,1.474,-0.006,0.024,-0.005,0.012,0.021,-0.018,12.006,0.321,1.000,0.000,1,1,1,1,-0.003,-0.001,0.131,0.205,-0.008,0.000,-0.002,-0.002,0.205,0.008,0.000,0
20260703_202842,case01_baseline_boxes,6,294.5,1.000,1.479,678.554,-1.439,736.190,-1.835,-0.044,0.157,6.633,-1.978,0.336,0.119,1.979,0.094,0.339,0.294,0.083,-89.233,0.309,-0.335,1.476,-0.005,0.025,-0.006,0.013,0.015,-0.005,11.372,0.309,1.000,0.000,1,1,1,1,-0.003,-0.001,0.126,0.263,-0.008,0.001,-0.002,-0.002,0.263,0.008,0.000,0
20260703_202842,case01_baseline_boxes,6,294.5,1.000,1.587,678.343,-1.442,736.207,-2.047,-0.011,0.170,7.396,-2.121,0.331,0.130,2.122,0.098,0.332,0.317,0.048,-89.069,0.235,-0.342,1.638,-0.003,0.027,-0.005,0.014,0.015,0.007,10.638,0.290,1.000,0.000,1,1,1,1,-0.004,-0.002,0.119,-0.021,-0.007,0.001,-0.002,-0.002,0.119,0.007,0.000,0
20260703_202842,case01_baseline_boxes,6,294.5,1.000,1.691,678.119,-1.442,736.226,-2.263,0.010,0.181,8.172,-2.156,0.212,0.112,2.157,0.073,0.213,0.332,0.023,-88.907,0.147,-0.256,1.621,-0.002,0.028,-0.003,0.013,0.007,0.017,9.923,0.272,1.000,0.000,1,1,1,1,-0.004,-0.002,0.121,0.095,-0.006,0.000,-0.002,-0.002,0.121,0.006,0.000,0
20260703_202842,case01_baseline_boxes,6,294.5,1.000,1.791,677.883,-1.440,736.244,-2.456,0.018,0.194,8.868,-1.929,0.082,0.134,1.931,0.092,0.082,0.340,0.008,-88.744,0.075,-0.148,1.624,-0.001,0.029,-0.002,0.011,0.010,0.018,9.266,0.255,1.000,0.000,1,1,1,1,-0.004,-0.002,0.121,0.089,-0.003,0.003,-0.002,-0.002,0.121,0.003,0.000,0
20260703_202842,case01_baseline_boxes,6,294.5,1.000,1.895,677.619,-1.438,736.265,-2.648,0.019,0.207,9.563,-1.926,0.003,0.126,1.928,0.078,0.003,0.342,0.004,-88.572,0.018,-0.041,1.718,0.000,0.029,0.000,0.010,0.006,0.018,8.928,0.246,1.000,0.000,1,1,1,1,-0.004,-0.002,0.122,0.088,-0.005,0.000,-0.002,-0.002,0.122,0.005,0.000,0
20260703_202842,case01_baseline_boxes,6,294.5,1.000,1.999,677.333,-1.437,736.287,-2.840,0.015,0.220,10.256,-1.921,-0.040,0.131,1.924,0.077,-0.041,0.338,0.010,-88.396,-0.035,0.057,1.768,0.001,0.030,0.002,0.008,0.004,0.013,8.331,0.231,1.000,0.000,1,1,1,1,-0.004,-0.002,0.123,0.088,-0.004,0.001,-0.003,-0.003,0.123,0.004,0.000,0
20260703_202842,case01_baseline_boxes,6,294.5,1.000,2.103,677.027,-1.435,736.311,-3.051,0.009,0.236,11.017,-2.108,-0.059,0.157,2.112,0.091,-0.058,0.330,0.022,-88.217,-0.082,0.123,1.785,0.002,0.030,0.002,0.008,0.004,0.008,7.726,0.215,1.000,0.000,1,1,1,1,-0.004,-0.002,0.124,0.088,-0.002,0.003,-0.003,-0.003,0.124,0.003,0.000,0
20260703_202842,case01_baseline_boxes,6,294.5,1.000,2.203,676.711,-1.435,736.335,-3.243,0.004,0.250,11.708,-1.915,-0.046,0.139,1.918,0.074,-0.046,0.318,0.037,-88.043,-0.116,0.148,1.736,0.002,0.030,0.003,0.006,0.000,0.002,7.379,0.206,1.000,0.000,1,1,1,1,-0.004,-0.002,0.125,0.088,-0.003,0.001,-0.003,-0.003,0.125,0.003,0.000,0
20260703_202842,case01_baseline_boxes,6,294.5,1.000,2.315,676.336,-1.434,736.364,-3.453,0.001,0.265,12.467,-2.102,-0.035,0.156,2.106,0.077,-0.034,0.302,0.053,-87.850,-0.167,0.160,1.935,0.003,0.030,0.002,0.005,-0.002,-0.004,6.836,0.192,1.000,0.000,1,1,1,1,-0.003,-0.002,0.125,0.087,-0.002,0.001,-0.003,-0.003,0.125,0.003,0.000,0
20260703_202842,case01_baseline_boxes,6,294.5,1.000,2.419,675.968,-1.434,736.392,-3.643,-0.001,0.280,13.155,-1.905,-0.019,0.148,1.909,0.070,-0.017,0.283,0.064,-87.673,-0.182,0.118,1.774,0.003,0.030,0.002,0.004,-0.003,-0.006,6.365,0.179,1.000,0.000,1,1,1,1,-0.003,-0.002,0.125,0.087,-0.002,0.002,-0.003,-0.003,0.125,0.003,0.000,0
20260703_202842,case01_baseline_boxes,6,294.5,1.000,2.519,675.593,-1.435,736.421,-3.833,-0.002,0.295,13.840,-1.897,-0.011,0.153,1.902,0.070,-0.009,0.264,0.072,-87.503,-0.194,0.074,1.694,0.004,0.029,0.001,0.002,-0.004,-0.007,5.907,0.167,1.000,0.000,1,1,1,1,-0.003,-0.002,0.126,0.087,-0.001,0.002,-0.003,-0.003,0.126,0.003,0.000,0
20260703_202842,case01_baseline_boxes,6,294.5,1.000,2.627,675.166,-1.435,736.454,-4.041,-0.003,0.311,14.591,-2.080,-0.008,0.152,2.085,0.055,-0.006,0.242,0.075,-87.324,-0.223,0.034,1.791,0.004,0.028,0.000,0.001,-0.011,-0.008,5.294,0.150,1.000,0.000,1,1,1,1,-0.003,-0.002,0.126,0.087,0.001,0.003,-0.003,-0.003,0.126,0.003,0.000,0
20260703_202842,case01_baseline_boxes,6,294.5,1.000,2.731,674.737,-1.435,736.487,-4.248,-0.004,0.328,15.337,-2.066,-0.006,0.171,2.072,0.068,-0.004,0.220,0.075,-87.159,-0.218,-0.005,1.652,0.004,0.027,-0.001,0.000,-0.009,-0.006,4.909,0.140,1.000,0.000,1,1,1,1,-0.003,-0.002,0.126,0.087,0.000,0.002,-0.003,-0.003,0.126,0.003,0.000,0
20260703_202842,case01_baseline_boxes,6,294.5,1.000,2.839,674.268,-1.436,736.524,-4.434,-0.004,0.345,16.011,-1.865,-0.005,0.172,1.872,0.074,-0.003,0.197,0.071,-86.991,-0.227,-0.034,1.679,0.004,0.027,-0.001,-0.001,-0.006,-0.003,4.578,0.131,1.000,0.000,1,1,1,1,-0.003,-0.002,0.126,0.087,0.000,0.002,-0.003,-0.003,0.126,0.003,0.000,0
20260703_202842,case01_baseline_boxes,6,294.5,1.000,2.947,673.777,-1.436,736.562,-4.638,-0.005,0.365,16.749,-2.039,-0.003,0.200,2.047,0.087,-0.001,0.175,0.066,-86.827,-0.219,-0.049,1.635,0.003,0.026,-0.001,-0.002,-0.007,-0.001,4.249,0.122,1.000,0.000,1,1,1,1,-0.003,-0.002,0.125,0.086,0.000,0.002,-0.004,-0.004,0.125,0.004,0.000,0
20260703_202842,case01_baseline_boxes,6,294.5,1.000,3.055,673.265,-1.437,736.603,-4.841,-0.005,0.385,17.482,-2.027,0.001,0.205,2.035,0.087,0.003,0.155,0.061,-86.669,-0.205,-0.050,1.588,0.003,0.025,-0.001,-0.003,-0.007,0.001,3.941,0.109,1.000,0.000,1,1,1,1,-0.003,-0.002,0.125,0.086,0.000,0.002,-0.004,-0.004,0.125,0.004,0.000,0
20260703_202842,case01_baseline_boxes,6,294.5,1.000,3.187,672.609,-1.437,736.656,-5.101,-0.002,0.411,18.424,-2.604,0.026,0.254,2.615,0.094,0.028,0.132,0.056,-86.481,-0.226,-0.052,1.875,0.003,0.024,-0.001,-0.004,-0.015,0.004,3.478,0.101,1.000,0.000,1,1,1,1,0.001,0.013,0.172,0.340,0.002,0.003,-0.004,-0.004,0.340,0.004,0.000,0
20260703_202842,case01_baseline_boxes,6,294.5,1.000,3.291,672.071,-1.437,736.699,-5.237,-0.002,0.427,18.915,-1.357,0.000,0.160,1.365,0.073,0.001,0.117,0.053,-86.339,-0.153,-0.030,1.418,0.002,0.024,-0.001,-0.005,-0.002,-0.002,3.210,0.094,1.000,0.000,1,1,1,1,-0.013,-0.535,-0.070,-0.134,0.001,0.002,-0.003,-0.003,0.535,0.003,0.000,0
20260703_202842,case01_baseline_boxes,6,294.5,1.000,3.399,671.494,-1.438,736.747,-5.456,-0.002,0.449,19.709,-2.194,0.002,0.220,2.204,0.074,0.004,0.104,0.052,-86.198,-0.131,-0.016,1.410,0.002,0.022,0.000,-0.004,-0.020,0.006,2.959,0.083,1.000,0.000,1,1,1,1,-0.016,-0.524,-0.056,0.383,0.002,0.003,-0.004,-0.004,0.524,0.004,0.000,0
20260703_202842,case01_baseline_boxes,6,294.5,1.000,3.499,670.938,-1.438,736.793,-5.598,-0.001,0.465,20.223,-1.418,0.005,0.161,1.425,0.064,0.006,0.094,0.052,-86.073,-0.096,0.002,1.252,0.001,0.022,0.000,-0.005,0.001,-0.001,2.602,0.077,0.983,0.000,1,1,1,1,-0.012,-0.487,-0.051,-0.126,0.002,0.003,-0.003,-0.003,0.487,0.003,0.000,0
20260703_202842,case01_baseline_boxes,6,294.5,1.000,3.607,670.320,-1.438,736.844,-5.817,0.000,0.489,21.016,-2.193,0.008,0.239,2.205,0.083,0.010,0.087,0.053,-85.945,-0.073,0.013,1.281,0.001,0.021,0.000,-0.005,-0.008,0.004,2.391,0.071,0.960,0.000,1,1,1,1,0.001,0.344,0.286,-0.461,0.001,0.002,-0.003,-0.003,0.461,0.003,0.000,0
20260703_202842,case01_baseline_boxes,6,294.5,1.000,3.707,669.728,-1.438,736.894,-6.007,0.000,0.509,21.704,-1.899,0.006,0.203,1.908,0.064,0.008,0.083,0.054,-85.832,-0.041,0.013,1.132,0.001,0.019,0.000,-0.004,-0.018,0.002,2.094,0.062,0.943,0.000,1,1,1,1,0.012,0.371,0.271,0.557,0.005,0.006,-0.005,-0.005,0.557,0.006,0.000,0
20260703_202842,case01_baseline_boxes,6,294.5,1.000,3.815,669.071,-1.438,736.950,-6.120,0.001,0.523,22.112,-1.126,0.005,0.137,1.133,0.053,0.006,0.081,0.056,-85.718,-0.015,0.013,1.139,0.000,0.019,0.000,-0.006,-0.003,-0.006,1.910,0.054,0.903,0.000,1,1,1,1,-0.012,-0.367,-0.026,-0.387,0.002,0.002,-0.003,-0.003,0.387,0.003,0.000,0
20260703_202842,case01_baseline_boxes,6,294.5,1.000,3.923,668.397,-1.438,737.008,-6.384,0.001,0.548,23.066,-2.637,0.003,0.257,2.649,0.054,0.006,0.083,0.056,-85.613,0.013,0.007,1.052,0.000,0.015,0.000,-0.003,-0.034,0.007,1.566,0.047,0.888,0.000,1,1,1,1,0.000,0.346,0.223,0.249,0.004,0.005,-0.004,-0.004,0.346,0.005,0.000,0
20260703_202842,case01_baseline_boxes,6,294.5,1.000,4.023,667.755,-1.438,737.063,-6.495,0.001,0.562,23.468,-1.112,0.000,0.133,1.119,0.046,0.001,0.086,0.057,-85.523,0.037,0.002,0.894,-0.001,0.015,0.000,-0.004,0.000,-0.004,1.449,0.043,0.863,0.000,1,1,1,1,0.001,0.337,0.219,-0.192,0.003,0.003,-0.003,-0.003,0.337,0.003,0.000,0
20260703_202842,case01_baseline_boxes,6,294.5,1.000,4.126,667.077,-1.438,737.122,-6.676,0.001,0.581,24.125,-1.815,-0.001,0.196,1.824,0.051,0.001,0.092,0.056,-85.438,0.060,-0.005,0.856,-0.001,0.013,0.000,-0.003,-0.021,0.002,1.263,0.038,0.846,0.000,1,1,1,1,0.006,0.331,0.205,0.415,0.004,0.005,-0.004,-0.004,0.415,0.005,0.000,0
20260703_202842,case01_baseline_boxes,6,294.5,1.000,4.227,666.402,-1.437,737.181,-6.801,0.001,0.596,24.579,-1.252,-0.002,0.151,1.260,0.050,0.000,0.100,0.055,-85.360,0.074,-0.010,0.780,-0.001,0.013,0.000,-0.003,-0.005,-0.002,1.169,0.035,0.827,0.000,1,1,1,1,0.009,0.322,0.201,0.508,0.004,0.004,-0.004,-0.004,0.508,0.004,0.000,0
20260703_202842,case01_baseline_boxes,6,294.5,1.000,4.331,665.687,-1.437,737.243,-6.926,0.001,0.611,25.030,-1.245,-0.002,0.150,1.253,0.047,0.000,0.109,0.054,-85.285,0.092,-0.015,0.752,-0.002,0.012,0.000,-0.003,-0.007,-0.003,1.009,0.031,0.796,0.000,1,1,1,1,-0.010,-0.311,0.016,0.139,0.003,0.003,-0.003,-0.003,0.311,0.003,0.000,0
20260703_202842,case01_baseline_boxes,6,294.5,1.000,4.431,664.988,-1.437,737.305,-7.055,0.001,0.627,25.499,-1.294,-0.001,0.153,1.302,0.044,0.001,0.119,0.052,-85.217,0.100,-0.017,0.672,-0.002,0.011,0.000,-0.002,-0.007,0.000,0.919,0.028,0.777,0.000,1,1,1,1,-0.009,-0.300,0.027,0.112,0.002,0.002,-0.003,-0.003,0.300,0.003,0.000,0
20260703_202842,case01_baseline_boxes,6,294.5,1.000,4.543,664.189,-1.437,737.376,-7.224,0.001,0.646,26.111,-1.689,0.001,0.192,1.699,0.048,0.002,0.131,0.050,-85.148,0.120,-0.020,0.696,-0.002,0.010,0.000,-0.001,-0.015,0.003,0.786,0.024,0.761,0.000,1,1,1,1,0.001,0.282,0.130,0.104,0.003,0.003,-0.003,-0.003,0.282,0.003,0.000,0
20260703_202842,case01_baseline_boxes,6,294.5,1.000,4.655,663.377,-1.437,737.449,-7.324,0.001,0.658,26.473,-0.999,0.001,0.122,1.006,0.036,0.002,0.143,0.048,-85.084,0.124,-0.018,0.635,-0.002,0.010,0.000,-0.001,0.000,-0.003,0.664,0.020,0.737,0.000,1,1,1,1,-0.005,-0.270,0.042,0.046,0.003,0.003,-0.003,-0.003,0.270,0.003,0.000,0
20260703_202842,case01_baseline_boxes,6,294.5,1.000,4.759,662.606,-1.437,737.518,-7.438,0.001,0.671,26.886,-1.141,0.001,0.132,1.148,0.033,0.002,0.155,0.047,-85.030,0.116,-0.015,0.546,-0.002,0.009,0.000,0.000,-0.007,0.000,0.592,0.017,0.720,0.000,1,1,1,1,-0.008,-0.264,0.038,0.000,0.002,0.002,-0.002,-0.002,0.264,0.002,0.000,0
20260703_202842,case01_baseline_boxes,6,294.5,1.000,4.871,661.764,-1.437,737.595,-7.560,0.001,0.685,27.326,-1.213,0.001,0.140,1.221,0.034,0.002,0.167,0.046,-84.977,0.121,-0.013,0.530,-0.002,0.009,0.000,0.001,-0.005,-0.001,0.488,0.014,0.700,0.000,1,1,1,1,-0.008,-0.249,0.042,-0.168,0.002,0.002,-0.002,-0.002,0.249,0.002,0.000,0
20260703_202842,case01_baseline_boxes,6,294.5,1.000,4.983,660.907,-1.437,737.672,-7.729,0.001,0.703,27.941,-1.698,0.001,0.182,1.708,0.031,0.002,0.178,0.044,-84.928,0.115,-0.011,0.486,-0.002,0.007,0.000,0.002,-0.021,0.005,0.402,0.012,0.692,0.000,1,1,1,1,0.005,0.234,0.127,0.442,0.004,0.004,-0.003,-0.003,0.442,0.004,0.000,0
20260703_202842,case01_baseline_boxes,6,294.5,1.000,5.087,660.100,-1.437,737.746,-7.841,0.001,0.715,28.344,-1.114,0.000,0.122,1.121,0.022,0.001,0.188,0.044,-84.888,0.097,-0.005,0.401,-0.002,0.006,0.000,0.002,-0.009,0.001,0.319,0.010,0.673,0.000,1,1,1,1,0.002,0.219,0.120,0.218,0.003,0.003,-0.003,-0.003,0.219,0.003,0.000,0
20260703_202842,case01_baseline_boxes,6,294.5,1.000,5.191,659.281,-1.437,737.821,-7.903,0.001,0.723,28.570,-0.623,-0.001,0.076,0.628,0.020,-0.001,0.197,0.044,-84.851,0.087,-0.005,0.367,-0.001,0.006,0.000,0.001,0.007,-0.004,0.253,0.008,0.652,0.000,1,1,1,1,-0.007,-0.203,0.052,-0.115,0.002,0.002,-0.002,-0.002,0.203,0.002,0.000,0
20260703_202842,case01_baseline_boxes,6,294.5,1.000,5.299,658.422,-1.437,737.899,-7.987,0.001,0.733,28.874,-0.841,-0.001,0.095,0.846,0.019,-0.001,0.205,0.043,-84.817,0.077,-0.005,0.345,-0.001,0.006,0.000,0.002,-0.001,-0.001,0.214,0.006,0.637,0.000,1,1,1,1,-0.006,-0.184,0.055,-0.294,0.002,0.002,-0.002,-0.002,0.294,0.002,0.000,0
20260703_202842,case01_baseline_boxes,6,294.5,1.000,5.407,657.547,-1.437,737.980,-8.151,0.001,0.750,29.468,-1.640,-0.001,0.170,1.649,0.021,0.000,0.211,0.043,-84.786,0.064,-0.002,0.306,-0.001,0.004,0.000,0.003,-0.022,0.005,0.159,0.005,0.628,0.000,1,1,1,1,0.002,0.160,0.104,0.270,0.003,0.003,-0.002,-0.002,0.270,0.003,0.000,0
20260703_202842,case01_baseline_boxes,6,294.5,1.000,5.511,656.699,-1.437,738.058,-8.206,0.000,0.756,29.668,-0.552,-0.003,0.066,0.556,0.015,-0.002,0.216,0.042,-84.759,0.047,-0.004,0.269,-0.001,0.005,0.000,0.002,0.007,-0.004,0.114,0.003,0.609,0.000,1,1,1,1,-0.006,-0.129,0.057,-0.132,0.002,0.002,-0.002,-0.002,0.132,0.002,0.000,0
20260703_202842,case01_baseline_boxes,6,294.5,1.000,5.615,655.839,-1.436,738.137,-8.284,0.000,0.765,29.951,-0.780,-0.002,0.086,0.785,0.014,-0.002,0.219,0.042,-84.735,0.034,-0.005,0.243,0.000,0.005,0.000,0.002,-0.001,-0.001,0.077,0.002,0.595,0.000,1,1,1,1,-0.005,-0.082,0.059,-0.277,0.002,0.002,-0.002,-0.002,0.277,0.002,0.000,0
20260703_202842,case01_baseline_boxes,6,294.5,1.000,5.727,654.907,-1.436,738.223,-8.424,0.000,0.779,30.455,-1.394,-0.002,0.145,1.401,0.015,-0.001,0.221,0.041,-84.712,0.021,-0.005,0.233,0.000,0.003,0.000,0.003,-0.017,0.004,0.045,0.001,0.587,0.000,1,1,1,1,0.001,0.028,0.090,0.304,0.003,0.003,-0.002,-0.002,0.304,0.003,0.000,0
20260703_202842,case01_baseline_boxes,6,294.5,1.000,5.835,653.993,-1.436,738.308,-8.477,0.000,0.785,30.649,-0.534,-0.002,0.062,0.538,0.012,-0.002,0.222,0.041,-84.691,0.006,-0.007,0.205,0.000,0.003,0.000,0.002,0.006,-0.003,0.012,0.000,0.570,0.000,1,1,1,1,-0.005,-0.016,0.060,-0.172,0.002,0.002,-0.002,-0.002,0.172,0.002,0.000,0
20260703_202842,case01_baseline_boxes,6,294.5,1.000,5.943,653.073,-1.437,738.393,-8.594,0.000,0.798,31.072,-1.170,-0.002,0.123,1.176,0.014,-0.001,0.221,0.040,-84.673,-0.007,-0.007,0.184,0.000,0.002,0.000,0.002,-0.011,0.002,-0.007,0.000,0.563,0.000,1,1,1,1,0.002,0.013,0.085,0.375,0.003,0.003,-0.002,-0.002,0.375,0.003,0.000,0
20260703_202842,case01_baseline_boxes,6,294.5,1.000,6.051,652.141,-1.437,738.480,-8.640,-0.001,0.803,31.237,-0.456,-0.002,0.055,0.459,0.012,-0.001,0.219,0.039,-84.656,-0.018,-0.006,0.164,0.000,0.003,0.000,0.001,0.007,-0.003,-0.024,-0.001,0.545,0.000,1,1,1,1,-0.004,-0.013,0.059,-0.245,0.002,0.002,-0.002,-0.002,0.245,0.002,0.000,0
20260703_202842,case01_baseline_boxes,6,294.5,1.000,6.155,651.237,-1.437,738.564,-8.715,-0.001,0.811,31.509,-0.750,-0.001,0.082,0.754,0.012,0.000,0.217,0.039,-84.642,-0.027,-0.007,0.148,0.000,0.003,0.000,0.001,-0.003,0.000,-0.037,-0.001,0.535,0.000,1,1,1,1,-0.004,-0.013,0.058,-0.211,0.002,0.002,-0.001,-0.001,0.211,0.002,0.000,0
20260703_202842,case01_baseline_boxes,6,294.5,1.000,6.267,650.253,-1.437,738.655,-8.827,-0.001,0.823,31.914,-1.121,0.000,0.120,1.128,0.015,0.000,0.213,0.038,-84.627,-0.038,-0.007,0.144,0.001,0.002,0.000,0.002,-0.011,0.003,-0.046,-0.002,0.529,0.000,1,1,1,1,0.002,0.011,0.080,0.347,0.003,0.003,-0.002,-0.002,0.347,0.003,0.000,0
20260703_202842,case01_baseline_boxes,6,294.5,1.000,6.371,649.331,-1.437,738.741,-8.864,-0.001,0.828,32.050,-0.374,-0.001,0.048,0.377,0.013,0.000,0.209,0.037,-84.615,-0.042,-0.005,0.124,0.001,0.002,0.000,0.000,0.008,-0.003,-0.058,-0.002,0.513,0.000,1,1,1,1,-0.004,-0.012,0.057,-0.226,0.002,0.002,-0.001,-0.001,0.226,0.002,0.000,0
20260703_202842,case01_baseline_boxes,6,294.5,1.000,6.483,648.335,-1.437,738.835,-8.972,-0.001,0.840,32.440,-1.076,0.000,0.116,1.082,0.015,0.001,0.204,0.037,-84.602,-0.049,-0.007,0.125,0.001,0.001,0.000,0.001,-0.011,0.003,-0.067,-0.002,0.508,0.000,1,1,1,1,0.002,0.010,0.076,0.337,0.003,0.003,-0.002,-0.002,0.337,0.003,0.000,0
20260703_202842,case01_baseline_boxes,6,294.5,1.000,6.583,647.435,-1.437,738.919,-9.034,-0.001,0.847,32.665,-0.623,0.000,0.070,0.627,0.011,0.001,0.199,0.036,-84.592,-0.045,-0.005,0.103,0.001,0.001,0.000,0.000,-0.001,0.000,-0.071,-0.002,0.499,0.000,1,1,1,1,0.002,0.010,0.075,0.334,0.002,0.002,-0.002,-0.002,0.334,0.002,0.000,0
20260703_202842,case01_baseline_boxes,6,294.5,1.000,6.695,646.425,-1.437,739.014,-9.064,-0.001,0.851,32.774,-0.300,0.000,0.040,0.303,0.012,0.000,0.194,0.036,-84.581,-0.052,-0.004,0.106,0.001,0.002,0.000,-0.001,0.009,-0.003,-0.078,-0.003,0.484,0.000,1,1,1,1,-0.004,-0.010,0.054,-0.226,0.002,0.002,-0.001,-0.001,0.226,0.002,0.000,0
20260703_202842,case01_baseline_boxes,6,294.5,1.000,6.795,645.511,-1.437,739.100,-9.122,-0.001,0.858,32.985,-0.581,0.000,0.067,0.584,0.011,0.001,0.190,0.036,-84.572,-0.046,-0.004,0.090,0.001,0.002,0.000,0.000,-0.001,0.000,-0.096,-0.003,0.476,0.000,1,1,1,1,-0.004,-0.010,0.054,-0.226,0.002,0.002,-0.001,-0.001,0.226,0.002,0.000,0
20260703_202842,case01_baseline_boxes,6,294.5,1.000,6.903,644.524,-1.437,739.193,-9.220,-0.001,0.868,33.337,-0.973,0.001,0.107,0.979,0.014,0.001,0.185,0.035,-84.563,-0.046,-0.004,0.091,0.001,0.001,0.000,0.000,-0.011,0.003,-0.088,-0.003,0.472,0.000,1,1,1,1,0.002,0.009,0.071,0.325,0.002,0.002,-0.002,-0.002,0.325,0.002,0.000,0
20260703_202842,case01_baseline_boxes,6,294.5,1.000,7.003,643.598,-1.437,739.280,-9.273,-0.001,0.875,33.533,-0.539,0.000,0.063,0.542,0.011,0.001,0.181,0.035,-84.555,-0.040,-0.003,0.079,0.001,0.001,0.000,-0.001,-0.001,0.000,-0.103,-0.003,0.464,0.000,1,1,1,1,0.002,0.008,0.070,0.323,0.002,0.002,-0.002,-0.002,0.323,0.002,0.000,0
20260703_202842,case01_baseline_boxes,6,294.5,1.000,7.123,642.485,-1.437,739.385,-9.336,-0.001,0.882,33.758,-0.622,0.001,0.074,0.627,0.014,0.001,0.177,0.034,-84.547,-0.042,-0.004,0.089,0.001,0.001,0.000,-0.001,-0.001,0.000,-0.094,-0.003,0.455,0.000,1,1,1,1,0.002,0.008,0.068,0.319,0.002,0.002,-0.002,-0.002,0.319,0.002,0.000,0
20260703_202842,case01_baseline_boxes,6,294.5,1.000,7.231,641.473,-1.437,739.481,-9.355,0.000,0.885,33.829,-0.196,0.000,0.030,0.198,0.011,0.000,0.174,0.034,-84.539,-0.032,-0.003,0.074,0.000,0.002,0.000,-0.002,0.009,-0.003,-0.102,-0.003,0.442,0.000,1,1,1,1,-0.004,-0.009,0.051,-0.225,0.001,0.001,-0.001,-0.001,0.225,0.001,0.000,0
20260703_202842,case01_baseline_boxes,6,294.5,1.000,7.339,640.459,-1.437,739.577,-9.403,0.000,0.891,34.004,-0.482,0.001,0.057,0.486,0.011,0.001,0.171,0.034,-84.532,-0.026,-0.004,0.073,0.000,0.002,0.000,-0.001,-0.001,0.000,-0.102,-0.003,0.435,0.000,1,1,1,1,-0.003,-0.008,0.050,-0.225,0.001,0.001,-0.001,-0.001,0.225,0.001,0.000,0
20260703_202842,case01_baseline_boxes,6,294.5,1.000,7.447,639.440,-1.437,739.673,-9.490,0.000,0.900,34.316,-0.861,0.001,0.096,0.867,0.013,0.002,0.169,0.033,-84.525,-0.019,-0.003,0.064,0.000,0.001,0.000,0.000,-0.010,0.003,-0.107,-0.004,0.433,0.000,1,1,1,1,0.002,0.007,0.065,0.311,0.002,0.002,-0.002,-0.002,0.311,0.002,0.000,0
20260703_202842,case01_baseline_boxes,6,294.5,1.000,7.555,638.413,-1.437,739.771,-9.504,0.000,0.903,34.368,-0.143,0.001,0.023,0.144,0.009,0.001,0.168,0.033,-84.519,-0.012,-0.004,0.063,0.000,0.001,0.000,-0.002,0.009,-0.003,-0.110,-0.004,0.421,0.000,1,1,1,1,-0.003,-0.008,0.049,-0.224,0.001,0.001,-0.001,-0.001,0.224,0.001,0.000,0
20260703_202842,case01_baseline_boxes,6,294.5,1.000,7.663,637.384,-1.438,739.868,-9.586,0.000,0.912,34.665,-0.821,0.001,0.091,0.826,0.012,0.002,0.167,0.033,-84.513,-0.005,-0.004,0.058,0.000,0.000,0.000,0.000,-0.010,0.003,-0.114,-0.004,0.419,0.000,1,1,1,1,0.002,0.007,0.063,0.306,0.002,0.002,-0.002,-0.002,0.306,0.002,0.000,0
20260703_202842,case01_baseline_boxes,6,294.5,1.000,7.771,636.346,-1.438,739.967,-9.597,0.000,0.913,34.706,-0.110,0.001,0.018,0.111,0.008,0.001,0.168,0.032,-84.508,0.002,-0.003,0.052,0.000,0.001,0.000,-0.002,0.009,-0.003,-0.121,-0.004,0.407,0.000,1,1,1,1,-0.003,-0.008,0.048,-0.223,0.001,0.001,-0.001,-0.001,0.223,0.001,0.000,0
20260703_202842,case01_baseline_boxes,6,294.5,1.000,7.879,635.307,-1.438,740.066,-9.637,0.000,0.918,34.851,-0.401,0.001,0.046,0.404,0.008,0.001,0.168,0.032,-84.503,0.007,-0.004,0.052,0.000,0.001,0.000,-0.001,-0.001,0.000,-0.122,-0.004,0.402,0.000,1,1,1,1,-0.003,-0.007,0.047,-0.222,0.001,0.001,-0.001,-0.001,0.222,0.001,0.000,0
20260703_202842,case01_baseline_boxes,6,294.5,1.000,7.987,634.261,-1.438,740.166,-9.714,0.000,0.926,35.129,-0.767,0.001,0.083,0.771,0.009,0.001,0.170,0.032,-84.499,0.012,-0.002,0.044,0.000,0.000,0.000,0.000,-0.010,0.003,-0.126,-0.004,0.400,0.000,1,1,1,1,0.002,0.007,0.060,0.299,0.002,0.002,-0.001,-0.001,0.299,0.002,0.000,0
20260703_202842,case01_baseline_boxes,6,294.5,1.000,8.095,633.213,-1.437,740.266,-9.721,0.000,0.928,35.153,-0.068,0.000,0.013,0.069,0.006,0.000,0.171,0.032,-84.494,0.016,-0.003,0.042,0.000,0.001,0.000,-0.001,0.009,-0.003,-0.129,-0.004,0.389,0.000,1,1,1,1,-0.003,-0.007,0.046,-0.220,0.001,0.001,-0.001,-0.001,0.220,0.001,0.000,0
20260703_202842,case01_baseline_boxes,6,294.5,1.000,8.195,632.236,-1.437,740.359,-9.757,0.000,0.932,35.284,-0.359,0.000,0.040,0.362,0.005,0.001,0.173,0.031,-84.491,0.019,-0.002,0.035,0.000,0.001,0.000,-0.001,-0.001,0.000,-0.133,-0.004,0.384,0.000,1,1,1,1,-0.003,-0.007,0.045,-0.220,0.001,0.001,-0.001,-0.001,0.220,0.001,0.000,0
20260703_202842,case01_baseline_boxes,6,294.5,1.000,8.299,631.219,-1.437,740.456,-9.791,0.000,0.936,35.409,-0.347,0.000,0.039,0.349,0.005,0.000,0.175,0.031,-84.488,0.022,-0.003,0.033,0.000,0.001,0.000,0.000,-0.001,0.000,-0.133,-0.004,0.379,0.000,1,1,1,1,-0.003,-0.007,0.045,-0.219,0.001,0.001,-0.001,-0.001,0.219,0.001,0.000,0
20260703_202842,case01_baseline_boxes,6,294.5,1.000,8.399,630.234,-1.437,740.550,-9.825,0.000,0.939,35.531,-0.336,0.000,0.036,0.338,0.004,0.000,0.178,0.031,-84.485,0.023,-0.002,0.028,0.000,0.001,0.000,0.000,-0.001,0.000,-0.150,-0.004,0.374,0.000,1,1,1,1,-0.003,-0.007,0.044,-0.218,0.001,0.001,-0.001,-0.001,0.218,0.001,0.000,0
20260703_202842,case01_baseline_boxes,6,294.5,1.000,8.511,629.129,-1.437,740.656,-9.864,0.000,0.943,35.671,-0.388,0.000,0.042,0.390,0.005,0.000,0.180,0.031,-84.482,0.026,-0.002,0.026,0.000,0.001,0.000,0.000,-0.001,0.000,-0.141,-0.005,0.369,0.000,1,1,1,1,-0.003,-0.007,0.044,-0.217,0.001,0.001,-0.001,-0.001,0.217,0.001,0.000,0
20260703_202842,case01_baseline_boxes,6,294.5,1.000,8.611,628.140,-1.437,740.751,-9.895,0.000,0.947,35.784,-0.311,0.000,0.033,0.313,0.003,0.000,0.183,0.030,-84.480,0.024,-0.002,0.021,0.000,0.001,0.000,0.000,-0.001,0.000,-0.142,-0.005,0.364,0.000,1,1,1,1,-0.003,-0.006,0.043,-0.217,0.001,0.001,-0.001,-0.001,0.217,0.001,0.000,0
20260703_202842,case01_baseline_boxes,6,294.5,1.000,8.719,627.071,-1.437,740.853,-9.925,0.000,0.950,35.893,-0.301,0.000,0.031,0.302,0.002,0.000,0.185,0.030,-84.478,0.026,-0.003,0.021,0.000,0.001,0.000,0.000,0.000,0.000,-0.144,-0.005,0.360,0.000,1,1,1,1,-0.003,-0.006,0.043,-0.216,0.001,0.001,-0.001,-0.001,0.216,0.001,0.000,0
20260703_202842,case01_baseline_boxes,6,294.5,1.000,8.831,625.956,-1.437,740.960,-9.960,0.000,0.953,36.018,-0.347,0.000,0.035,0.349,0.002,0.000,0.188,0.030,-84.477,0.025,-0.002,0.015,0.000,0.001,0.000,0.000,-0.001,0.000,-0.151,-0.005,0.355,0.000,1,1,1,1,-0.003,-0.006,0.042,-0.215,0.001,0.001,-0.001,-0.001,0.215,0.001,0.000,0
20260703_202842,case01_baseline_boxes,6,294.5,1.000,8.931,624.956,-1.437,741.055,-9.987,0.000,0.956,36.119,-0.279,0.000,0.027,0.280,0.000,0.000,0.190,0.030,-84.475,0.021,-0.002,0.012,0.000,0.001,0.000,0.000,-0.001,0.000,-0.152,-0.005,0.351,0.000,1,1,1,1,-0.003,-0.006,0.042,-0.214,0.001,0.001,-0.001,-0.001,0.214,0.001,0.000,0
20260703_202842,case01_baseline_boxes,6,294.5,1.000,9.035,623.911,-1.437,741.156,-10.014,0.000,0.959,36.217,-0.269,0.000,0.026,0.271,0.000,0.000,0.192,0.030,-84.474,0.020,-0.002,0.009,0.000,0.001,0.000,0.000,-0.001,0.000,-0.153,-0.005,0.347,0.000,1,1,1,1,-0.003,-0.006,0.041,-0.213,0.001,0.001,-0.001,-0.001,0.213,0.001,0.000,0
20260703_202842,case01_baseline_boxes,6,294.5,1.000,9.143,622.827,-1.437,741.259,-10.075,0.000,0.965,36.437,-0.609,0.000,0.058,0.611,-0.001,0.000,0.193,0.029,-84.474,0.018,-0.002,0.006,0.000,0.000,0.000,0.001,-0.010,0.003,-0.160,-0.005,0.348,0.000,1,1,1,1,0.002,0.005,0.052,0.275,0.002,0.002,-0.001,-0.001,0.275,0.002,0.000,0
20260703_202842,case01_baseline_boxes,6,294.5,1.000,9.251,621.740,-1.437,741.363,-10.071,0.000,0.964,36.420,0.047,-0.001,-0.007,-0.048,-0.003,-0.001,0.195,0.029,-84.474,0.015,-0.002,-0.001,0.000,0.000,0.000,0.000,0.008,-0.003,-0.163,-0.005,0.339,0.000,1,1,1,1,-0.003,-0.006,0.040,-0.212,0.001,0.001,-0.001,-0.001,0.212,0.001,0.000,0
20260703_202842,case01_baseline_boxes,6,294.5,1.000,9.351,620.730,-1.437,741.460,-10.095,0.000,0.966,36.507,-0.242,0.000,0.022,0.243,-0.002,0.000,0.196,0.029,-84.474,0.010,-0.002,-0.002,0.000,0.000,0.000,0.001,-0.001,0.000,-0.165,-0.005,0.335,0.000,1,1,1,1,-0.003,-0.006,0.040,-0.211,0.001,0.001,-0.001,-0.001,0.211,0.001,0.000,0
20260703_202842,case01_baseline_boxes,6,294.5,1.000,9.455,619.680,-1.437,741.560,-10.118,0.000,0.968,36.591,-0.234,0.000,0.019,0.234,-0.004,0.000,0.197,0.029,-84.475,0.008,-0.002,-0.004,0.000,0.000,0.000,0.000,-0.001,0.000,-0.185,-0.005,0.332,0.000,1,1,1,1,-0.003,-0.006,0.040,-0.210,0.002,0.002,-0.001,-0.001,0.210,0.002,0.000,0
20260703_202842,case01_baseline_boxes,6,294.5,1.000,9.559,618.621,-1.437,741.662,-10.141,0.000,0.970,36.673,-0.225,0.000,0.019,0.226,-0.003,0.000,0.197,0.029,-84.475,0.004,-0.002,-0.007,0.000,0.000,0.000,0.000,0.000,0.000,-0.184,-0.006,0.329,0.000,1,1,1,1,-0.003,-0.006,0.039,-0.209,0.001,0.001,-0.001,-0.001,0.209,0.001,0.000,0
20260703_202842,case01_baseline_boxes,6,294.5,1.000,9.671,617.482,-1.437,741.771,-10.167,0.000,0.972,36.767,-0.261,0.000,0.021,0.262,-0.004,0.000,0.197,0.029,-84.477,0.003,-0.001,-0.015,0.000,0.000,0.000,0.001,-0.001,0.000,-0.175,-0.006,0.325,0.000,1,1,1,1,-0.003,-0.005,0.039,-0.208,0.001,0.001,-0.001,-0.001,0.208,0.001,0.000,0
20260703_202842,case01_baseline_boxes,6,294.5,1.000,9.783,616.342,-1.437,741.880,-10.221,0.000,0.977,36.963,-0.543,0.000,0.049,0.545,-0.004,0.000,0.197,0.028,-84.478,-0.002,-0.002,-0.015,0.000,-0.001,0.000,0.001,-0.009,0.003,-0.176,-0.006,0.326,0.000,1,1,1,1,0.002,0.005,0.049,0.265,0.002,0.002,-0.001,-0.001,0.265,0.002,0.000,0
20260703_202842,case01_baseline_boxes,6,294.5,1.000,9.895,615.200,-1.437,741.989,-10.212,0.000,0.975,36.930,0.093,-0.001,-0.014,-0.094,-0.005,-0.001,0.197,0.028,-84.480,-0.004,-0.002,-0.020,0.000,0.000,0.000,0.000,0.008,-0.003,-0.181,-0.006,0.319,0.000,1,1,1,1,-0.002,-0.005,0.038,-0.207,0.001,0.001,-0.001,-0.001,0.207,0.001,0.000,0
20260703_202842,case01_baseline_boxes,6,294.5,1.000,9.995,614.176,-1.437,742.086,-10.231,0.000,0.977,37.000,-0.194,0.000,0.014,0.194,-0.005,0.000,0.196,0.028,-84.482,-0.005,-0.002,-0.020,0.000,0.000,0.000,0.000,0.000,0.000,-0.180,-0.006,0.316,0.000,1,1,1,1,-0.002,-0.005,0.038,-0.206,0.001,0.001,-0.001,-0.001,0.206,0.001,0.000,0
20260703_202842,case01_baseline_boxes,6,294.5,1.000,10.104,613.063,-1.437,742.193,-10.283,0.000,0.981,37.186,-0.515,0.000,0.045,0.517,-0.005,0.000,0.196,0.028,-84.485,-0.006,-0.002,-0.024,0.000,-0.001,0.000,0.001,-0.009,0.003,-0.186,-0.006,0.317,0.000,1,1,1,1,0.002,0.005,0.048,0.261,0.002,0.002,-0.001,-0.001,0.261,0.002,0.000,0
20260703_202842,case01_baseline_boxes,6,294.5,1.000,10.220,611.870,-1.437,742.306,-10.271,0.000,0.979,37.145,0.112,0.000,-0.019,-0.113,-0.008,0.000,0.195,0.028,-84.487,-0.010,-0.002,-0.029,0.000,0.000,0.000,0.000,0.008,-0.003,-0.189,-0.006,0.310,0.000,1,1,1,1,-0.002,-0.005,0.037,-0.205,0.001,0.001,-0.001,-0.001,0.205,0.001,0.000,0
20260703_202842,case01_baseline_boxes,6,294.5,1.000,10.327,610.761,-1.437,742.412,-10.321,0.000,0.984,37.325,-0.498,0.000,0.043,0.500,-0.005,0.000,0.194,0.028,-84.491,-0.010,-0.001,-0.032,0.000,-0.001,0.000,0.001,-0.009,0.003,-0.190,-0.006,0.311,0.000,1,1,1,1,0.002,0.005,0.047,0.258,0.002,0.002,-0.001,-0.001,0.258,0.002,0.000,0
20260703_202842,case01_baseline_boxes,6,294.5,1.000,10.427,609.728,-1.437,742.511,-10.338,0.000,0.984,37.385,-0.166,0.000,0.009,0.166,-0.007,0.000,0.193,0.028,-84.494,-0.009,-0.001,-0.030,0.000,-0.001,0.000,0.000,-0.001,0.000,-0.193,-0.006,0.309,0.000,1,1,1,1,0.002,0.005,0.047,0.257,0.002,0.002,-0.001,-0.001,0.257,0.002,0.000,0
20260703_202842,case01_baseline_boxes,6,294.5,1.000,10.535,608.617,-1.437,742.616,-10.325,0.000,0.982,37.338,0.129,0.000,-0.021,-0.131,-0.009,0.000,0.192,0.027,-84.497,-0.010,-0.002,-0.036,0.000,0.000,0.000,0.000,0.008,-0.003,-0.198,-0.007,0.302,0.000,1,1,1,1,-0.002,-0.005,0.037,-0.203,0.001,0.001,-0.001,-0.001,0.203,0.001,0.000,0
20260703_202842,case01_baseline_boxes,6,294.5,1.000,10.635,607.582,-1.437,742.715,-10.340,0.000,0.983,37.394,-0.155,0.000,0.008,0.155,-0.007,0.000,0.191,0.027,-84.501,-0.009,-0.001,-0.036,0.000,0.000,0.000,0.000,0.000,0.000,-0.195,-0.007,0.300,0.000,1,1,1,1,-0.002,-0.005,0.036,-0.202,0.001,0.001,-0.001,-0.001,0.202,0.001,0.000,0
20260703_202842,case01_baseline_boxes,6,294.5,1.000,10.743,606.460,-1.437,742.821,-10.387,0.000,0.987,37.563,-0.468,0.000,0.037,0.470,-0.008,0.001,0.190,0.027,-84.505,-0.008,-0.001,-0.041,0.000,-0.001,0.000,0.000,-0.009,0.003,-0.201,-0.007,0.302,0.000,1,1,1,1,0.002,0.005,0.046,0.253,0.002,0.002,-0.001,-0.001,0.253,0.002,0.000,0
20260703_202842,case01_baseline_boxes,6,294.5,1.000,10.851,605.336,-1.437,742.928,-10.373,0.000,0.984,37.510,0.144,0.000,-0.024,-0.146,-0.010,0.000,0.190,0.027,-84.510,-0.008,-0.001,-0.046,0.000,0.000,0.000,-0.001,0.008,-0.003,-0.206,-0.007,0.295,0.000,1,1,1,1,-0.002,-0.005,0.036,-0.201,0.001,0.001,-0.001,-0.001,0.201,0.001,0.000,0
20260703_202842,case01_baseline_boxes,6,294.5,1.000,10.959,604.216,-1.437,743.034,-10.387,0.000,0.985,37.560,-0.139,0.000,0.004,0.139,-0.009,0.000,0.189,0.027,-84.514,-0.007,-0.002,-0.046,0.000,0.000,0.000,0.000,-0.001,0.000,-0.204,-0.007,0.293,0.000,1,1,1,1,-0.002,-0.005,0.036,-0.201,0.001,0.001,-0.001,-0.001,0.201,0.001,0.000,0
20260703_202842,case01_baseline_boxes,6,294.5,1.000,11.067,603.090,-1.437,743.141,-10.432,0.000,0.988,37.722,-0.448,0.000,0.034,0.449,-0.009,0.001,0.188,0.027,-84.519,-0.007,-0.001,-0.052,0.000,-0.001,0.000,0.000,-0.009,0.003,-0.209,-0.007,0.295,0.000,1,1,1,1,0.002,0.005,0.045,0.250,0.002,0.002,-0.001,-0.001,0.250,0.002,0.000,0
20260703_202842,case01_baseline_boxes,6,294.5,1.000,11.171,602.011,-1.437,743.243,-10.416,0.000,0.986,37.665,0.157,0.000,-0.026,-0.159,-0.011,0.000,0.188,0.027,-84.525,-0.005,0.000,-0.051,0.000,0.000,0.000,-0.001,0.008,-0.003,-0.210,-0.007,0.289,0.000,1,1,1,1,-0.002,-0.005,0.035,-0.199,0.001,0.001,-0.001,-0.001,0.199,0.001,0.000,0
20260703_202842,case01_baseline_boxes,6,294.5,1.000,11.275,600.927,-1.437,743.345,-10.428,0.000,0.986,37.709,-0.125,0.000,0.002,0.125,-0.010,0.000,0.187,0.027,-84.530,-0.004,-0.001,-0.052,0.000,-0.001,0.000,0.000,0.000,0.000,-0.231,-0.007,0.287,0.000,1,1,1,1,-0.002,-0.005,0.035,-0.199,0.002,0.002,-0.001,-0.001,0.199,0.002,0.000,0
20260703_202842,case01_baseline_boxes,6,294.5,1.000,11.383,599.795,-1.437,743.452,-10.471,0.000,0.989,37.864,-0.429,0.001,0.031,0.430,-0.010,0.001,0.187,0.027,-84.535,-0.001,-0.001,-0.057,0.000,-0.001,0.000,0.000,-0.009,0.003,-0.215,-0.007,0.290,0.000,1,1,1,1,0.002,0.004,0.044,0.247,0.002,0.002,-0.001,-0.001,0.247,0.002,0.000,0
20260703_202842,case01_baseline_boxes,6,294.5,1.000,11.491,598.662,-1.437,743.559,-10.454,0.000,0.986,37.803,0.169,0.000,-0.031,-0.171,-0.015,0.000,0.187,0.027,-84.542,0.002,-0.001,-0.063,0.000,-0.001,0.000,-0.001,0.008,-0.003,-0.222,-0.007,0.283,0.000,1,1,1,1,-0.002,-0.005,0.035,-0.198,0.001,0.001,0.000,0.000,0.198,0.001,0.000,0
20260703_202842,case01_baseline_boxes,6,294.5,1.000,11.599,597.536,-1.437,743.665,-10.466,0.000,0.986,37.843,-0.112,0.000,-0.001,0.112,-0.012,0.000,0.187,0.026,-84.548,0.000,-0.001,-0.063,0.000,-0.001,0.000,0.000,-0.001,0.000,-0.244,-0.007,0.282,0.000,1,1,1,1,-0.002,-0.005,0.034,-0.197,0.002,0.002,0.000,0.000,0.197,0.002,0.000,0
20260703_202842,case01_baseline_boxes,6,294.5,1.000,11.708,596.397,-1.437,743.773,-10.507,0.000,0.988,37.992,-0.413,0.000,0.027,0.413,-0.012,0.001,0.187,0.026,-84.555,0.001,0.000,-0.070,0.000,-0.002,0.000,0.000,-0.009,0.003,-0.244,-0.007,0.284,0.000,1,1,1,1,0.002,0.004,0.043,0.244,0.002,0.002,-0.001,-0.001,0.244,0.002,0.000,0
20260703_202842,case01_baseline_boxes,6,294.5,1.000,11.815,595.265,-1.437,743.879,-10.489,0.000,0.985,37.926,0.179,0.000,-0.032,-0.181,-0.015,0.000,0.188,0.026,-84.562,0.003,-0.001,-0.069,0.000,-0.001,0.000,-0.001,0.008,-0.003,-0.249,-0.008,0.278,0.000,1,1,1,1,-0.002,-0.005,0.034,-0.196,0.002,0.002,0.000,0.000,0.196,0.002,0.000,0
20260703_202842,case01_baseline_boxes,6,294.5,1.000,11.923,594.135,-1.437,743.985,-10.529,0.000,0.988,38.071,-0.402,0.000,0.026,0.402,-0.012,0.000,0.188,0.026,-84.569,0.004,-0.001,-0.072,0.000,-0.002,0.000,0.000,-0.008,0.003,-0.228,-0.008,0.281,0.000,1,1,1,1,0.001,0.004,0.043,0.242,0.002,0.002,-0.001,-0.001,0.242,0.002,0.000,0
20260703_202842,case01_baseline_boxes,6,294.5,1.000,12.031,592.996,-1.437,744.092,-10.511,0.000,0.984,38.004,0.185,0.000,-0.033,-0.187,-0.016,0.000,0.189,0.026,-84.577,0.005,0.000,-0.076,0.000,-0.001,0.000,-0.001,0.008,-0.002,-0.231,-0.008,0.275,0.000,1,1,1,1,-0.002,-0.005,0.034,-0.195,0.001,0.001,0.000,0.000,0.195,0.001,0.000,0
20260703_202842,case01_baseline_boxes,6,294.5,1.000,12.131,591.942,-1.437,744.190,-10.520,0.000,0.984,38.037,-0.093,0.000,-0.005,0.092,-0.014,0.000,0.189,0.026,-84.584,0.005,-0.001,-0.072,0.000,-0.001,0.000,0.000,0.000,0.000,-0.254,-0.008,0.274,0.000,1,1,1,1,-0.002,-0.004,0.033,-0.194,0.002,0.002,0.000,0.000,0.194,0.002,0.000,0
20260703_202842,case01_baseline_boxes,6,294.5,1.000,12.235,590.851,-1.437,744.292,-10.529,0.000,0.983,38.069,-0.090,0.000,-0.007,0.089,-0.015,0.000,0.190,0.026,-84.592,0.006,-0.001,-0.076,0.000,-0.001,0.000,0.000,-0.001,0.000,-0.257,-0.009,0.273,0.000,1,1,1,1,-0.002,-0.004,0.033,-0.194,0.002,0.002,0.000,0.000,0.194,0.002,0.000,0
20260703_202842,case01_baseline_boxes,6,294.5,1.000,12.335,589.795,-1.437,744.391,-10.538,0.000,0.982,38.100,-0.087,0.000,-0.008,0.086,-0.016,0.000,0.190,0.026,-84.599,0.005,-0.001,-0.078,0.000,-0.001,0.000,0.000,0.000,0.000,-0.256,-0.009,0.271,0.000,1,1,1,1,-0.002,-0.004,0.033,-0.193,0.002,0.002,0.000,0.000,0.193,0.002,0.000,0
20260703_202842,case01_baseline_boxes,6,294.5,1.000,12.435,588.734,-1.437,744.489,-10.546,0.000,0.982,38.130,-0.084,0.000,-0.008,0.083,-0.016,0.000,0.191,0.026,-84.607,0.006,-0.001,-0.081,0.000,-0.001,0.000,0.000,0.000,0.000,-0.254,-0.009,0.270,0.000,1,1,1,1,-0.002,-0.004,0.033,-0.193,0.001,0.001,0.000,0.000,0.193,0.001,0.000,0
20260703_202842,case01_baseline_boxes,6,294.5,1.000,12.543,587.595,-1.437,744.595,-10.584,0.000,0.983,38.266,-0.376,0.000,0.019,0.376,-0.017,0.001,0.192,0.026,-84.616,0.008,-0.001,-0.089,0.000,-0.002,0.000,0.001,-0.008,0.003,-0.257,-0.009,0.273,0.000,1,1,1,1,0.001,0.004,0.041,0.237,0.002,0.002,-0.001,-0.001,0.237,0.002,0.000,0
20260703_202842,case01_baseline_boxes,6,294.5,1.000,12.655,586.412,-1.437,744.705,-10.564,0.000,0.979,38.193,0.200,0.000,-0.040,-0.203,-0.021,0.000,0.192,0.026,-84.626,0.008,-0.001,-0.097,0.000,-0.001,0.000,0.000,0.007,-0.003,-0.263,-0.009,0.268,0.000,1,1,1,1,-0.002,-0.004,0.033,-0.192,0.001,0.001,0.000,0.000,0.192,0.001,0.000,0
20260703_202842,case01_baseline_boxes,6,294.5,1.000,12.755,585.353,-1.437,744.803,-10.571,0.000,0.978,38.220,-0.076,0.000,-0.011,0.075,-0.018,0.000,0.193,0.026,-84.635,0.005,-0.001,-0.089,0.000,-0.001,0.000,0.000,0.000,0.000,-0.259,-0.009,0.267,0.000,1,1,1,1,-0.002,-0.004,0.033,-0.191,0.001,0.001,0.000,0.000,0.191,0.001,0.000,0
20260703_202842,case01_baseline_boxes,6,294.5,1.000,12.863,584.211,-1.437,744.909,-10.608,0.000,0.980,38.351,-0.364,0.000,0.013,0.364,-0.021,0.000,0.193,0.026,-84.645,0.006,-0.001,-0.099,0.000,-0.002,0.000,0.001,-0.009,0.002,-0.264,-0.010,0.270,0.000,1,1,1,1,0.001,0.004,0.041,0.234,0.002,0.002,-0.001,-0.001,0.234,0.002,0.000,0
20260703_202842,case01_baseline_boxes,6,294.5,1.000,12.975,583.024,-1.437,745.018,-10.587,0.000,0.975,38.275,0.206,0.000,-0.046,-0.209,-0.027,0.000,0.194,0.026,-84.656,0.006,0.000,-0.113,0.000,-0.001,0.000,0.000,0.006,-0.002,-0.293,-0.010,0.264,0.000,1,1,1,1,-0.002,-0.004,0.032,-0.190,0.002,0.002,0.000,0.000,0.190,0.002,0.000,0
20260703_202842,case01_baseline_boxes,6,294.5,1.000,13.079,581.923,-1.437,745.120,-10.594,0.000,0.973,38.299,-0.069,0.000,-0.018,0.067,-0.024,0.000,0.195,0.026,-84.667,0.006,-0.001,-0.112,0.000,-0.002,0.000,0.000,-0.001,0.000,-0.288,-0.010,0.263,0.000,1,1,1,1,-0.002,-0.004,0.032,-0.190,0.001,0.001,0.000,0.000,0.190,0.001,0.000,0
20260703_202842,case01_baseline_boxes,6,294.5,1.000,13.187,580.773,-1.437,745.225,-10.630,0.000,0.974,38.427,-0.354,0.000,0.010,0.354,-0.023,0.000,0.195,0.026,-84.680,0.004,0.000,-0.124,0.000,-0.002,0.000,0.000,-0.008,0.002,-0.283,-0.010,0.266,0.000,1,1,1,1,0.001,0.004,0.041,0.232,0.002,0.002,-0.001,-0.001,0.232,0.002,0.000,0
20260703_202842,case01_baseline_boxes,6,294.5,1.000,13.291,579.669,-1.437,745.326,-10.608,0.000,0.970,38.349,0.212,0.000,-0.043,-0.215,-0.024,0.000,0.195,0.026,-84.692,0.004,0.000,-0.119,0.000,-0.002,0.000,0.000,0.008,-0.002,-0.277,-0.009,0.261,0.000,1,1,1,1,-0.002,-0.004,0.032,-0.189,0.001,0.001,0.000,0.000,0.189,0.001,0.000,0
20260703_202842,case01_baseline_boxes,6,294.5,1.000,13.395,578.567,-1.437,745.427,-10.614,0.000,0.968,38.371,-0.061,0.000,-0.014,0.060,-0.020,0.000,0.196,0.025,-84.703,0.003,-0.001,-0.117,0.000,-0.002,0.000,0.000,0.000,0.000,-0.298,-0.009,0.261,0.000,1,1,1,1,-0.002,-0.004,0.032,-0.188,0.002,0.002,0.000,0.000,0.188,0.002,0.000,0
20260703_202842,case01_baseline_boxes,6,294.5,1.000,13.499,577.458,-1.437,745.528,-10.620,0.000,0.967,38.391,-0.058,0.000,-0.013,0.057,-0.019,0.000,0.196,0.025,-84.715,0.003,-0.001,-0.116,0.000,-0.002,0.000,0.000,0.000,0.000,-0.290,-0.010,0.260,0.000,1,1,1,1,-0.002,-0.004,0.032,-0.188,0.002,0.002,0.000,0.000,0.188,0.002,0.000,0
20260703_202842,case01_baseline_boxes,6,294.5,1.000,13.619,576.181,-1.437,745.644,-10.627,0.000,0.965,38.415,-0.068,0.000,-0.017,0.066,-0.024,0.000,0.196,0.025,-84.728,0.001,-0.001,-0.133,0.000,-0.002,0.000,0.000,0.000,0.000,-0.292,-0.009,0.259,0.000,1,1,1,1,-0.002,-0.004,0.032,-0.188,0.002,0.002,0.000,0.000,0.188,0.002,0.000,0
20260703_202842,case01_baseline_boxes,6,294.5,1.000,13.727,575.035,-1.437,745.748,-10.661,0.000,0.966,38.537,-0.338,0.000,0.010,0.338,-0.021,0.000,0.196,0.025,-84.740,-0.001,0.000,-0.118,0.000,-0.002,0.000,0.001,-0.008,0.002,-0.292,-0.009,0.262,0.000,1,1,1,1,0.001,0.004,0.040,0.229,0.002,0.002,-0.001,-0.001,0.229,0.002,0.000,0
20260703_202842,case01_baseline_boxes,6,294.5,1.000,13.835,573.882,-1.437,745.852,-10.639,0.000,0.962,38.456,0.221,0.000,-0.043,-0.224,-0.023,0.000,0.196,0.025,-84.752,0.000,-0.001,-0.117,0.000,-0.002,0.000,0.000,0.008,-0.002,-0.291,-0.009,0.257,0.000,1,1,1,1,-0.002,-0.004,0.032,-0.187,0.002,0.002,0.000,0.000,0.187,0.002,0.000,0
20260703_202842,case01_baseline_boxes,6,294.5,1.000,13.943,572.733,-1.437,745.956,-10.672,0.000,0.963,38.576,-0.333,0.000,0.008,0.333,-0.022,0.000,0.196,0.025,-84.763,-0.001,-0.001,-0.116,0.000,-0.002,0.000,0.000,-0.008,0.002,-0.294,-0.009,0.260,0.000,1,1,1,1,0.001,0.004,0.040,0.228,0.002,0.002,-0.001,-0.001,0.228,0.002,0.000,0
20260703_202842,case01_baseline_boxes,6,294.5,1.000,14.055,571.539,-1.437,746.064,-10.650,0.000,0.958,38.494,0.224,0.000,-0.044,-0.227,-0.024,0.000,0.196,0.025,-84.776,-0.002,0.000,-0.123,0.000,-0.002,0.000,0.000,0.007,-0.002,-0.298,-0.009,0.255,0.000,1,1,1,1,-0.002,-0.004,0.031,-0.186,0.002,0.002,0.000,0.000,0.186,0.002,0.000,0
20260703_202842,case01_baseline_boxes,6,294.5,1.000,14.159,570.430,-1.437,746.164,-10.655,0.000,0.957,38.511,-0.047,0.000,-0.018,0.046,-0.022,0.000,0.196,0.025,-84.787,-0.002,0.000,-0.114,0.000,-0.002,0.000,0.000,0.000,0.000,-0.295,-0.010,0.255,0.000,1,1,1,1,-0.002,-0.004,0.031,-0.186,0.002,0.002,0.000,0.000,0.186,0.002,0.000,0
20260703_202842,case01_baseline_boxes,6,294.5,1.000,14.267,569.278,-1.437,746.267,-10.687,0.000,0.957,38.628,-0.326,0.000,0.006,0.325,-0.024,0.000,0.195,0.025,-84.799,-0.001,0.000,-0.123,0.000,-0.002,0.000,0.000,-0.008,0.002,-0.301,-0.010,0.258,0.000,1,1,1,1,0.001,0.004,0.039,0.227,0.002,0.002,-0.001,-0.001,0.227,0.002,0.000,0
20260703_202842,case01_baseline_boxes,6,294.5,1.000,14.367,568.211,-1.437,746.362,-10.692,0.000,0.955,38.643,-0.044,0.000,-0.020,0.042,-0.024,0.000,0.195,0.025,-84.811,-0.003,0.000,-0.116,0.000,-0.002,0.000,0.000,0.000,0.000,-0.298,-0.010,0.258,0.000,1,1,1,1,0.001,0.004,0.039,0.227,0.002,0.002,-0.001,-0.001,0.227,0.002,0.000,0
20260703_202842,case01_baseline_boxes,6,294.5,1.000,14.471,567.098,-1.437,746.462,-10.669,0.000,0.951,38.560,0.228,0.000,-0.048,-0.232,-0.027,0.000,0.195,0.025,-84.823,-0.003,0.000,-0.124,0.000,-0.002,0.000,0.000,0.007,-0.002,-0.300,-0.010,0.253,0.000,1,1,1,1,-0.002,-0.004,0.031,-0.185,0.002,0.002,0.000,0.000,0.185,0.002,0.000,0
20260703_202842,case01_baseline_boxes,6,294.5,1.000,14.575,565.987,-1.437,746.560,-10.673,0.000,0.949,38.574,-0.041,0.000,-0.020,0.039,-0.024,0.000,0.195,0.025,-84.836,-0.002,0.000,-0.125,0.000,-0.002,0.000,0.000,0.000,0.000,-0.297,-0.010,0.252,0.000,1,1,1,1,-0.002,-0.004,0.031,-0.185,0.001,0.001,0.000,0.000,0.185,0.001,0.000,0
20260703_202842,case01_baseline_boxes,6,294.5,1.000,14.691,564.744,-1.437,746.671,-10.678,0.000,0.946,38.590,-0.048,0.000,-0.026,0.046,-0.030,0.000,0.194,0.025,-84.850,-0.003,0.000,-0.145,0.000,-0.002,0.000,0.000,-0.001,0.000,-0.307,-0.010,0.252,0.000,1,1,1,1,-0.002,-0.004,0.031,-0.185,0.002,0.002,0.000,0.000,0.185,0.002,0.000,0
20260703_202842,case01_baseline_boxes,6,294.5,1.000,14.795,563.638,-1.437,746.769,-10.682,0.000,0.944,38.603,-0.038,0.000,-0.022,0.036,-0.025,0.000,0.194,0.025,-84.863,-0.002,0.000,-0.131,0.000,-0.002,0.000,0.000,0.000,0.000,-0.304,-0.010,0.251,0.000,1,1,1,1,-0.002,-0.004,0.031,-0.184,0.001,0.001,0.000,0.000,0.184,0.001,0.000,0
20260703_202842,case01_baseline_boxes,6,294.5,1.000,14.903,562.477,-1.437,746.871,-10.713,0.000,0.944,38.716,-0.314,0.000,0.001,0.313,-0.027,0.000,0.194,0.025,-84.877,-0.002,-0.001,-0.140,0.000,-0.003,0.000,0.000,-0.008,0.002,-0.308,-0.010,0.254,0.000,1,1,1,1,0.001,0.004,0.039,0.225,0.002,0.002,-0.001,-0.001,0.225,0.002,0.000,0
20260703_202842,case01_baseline_boxes,6,294.5,1.000,15.020,561.231,-1.437,746.981,-10.690,0.000,0.939,38.631,0.234,0.000,-0.051,-0.237,-0.030,0.000,0.194,0.025,-84.893,-0.002,-0.001,-0.154,0.000,-0.002,0.000,0.000,0.007,-0.002,-0.308,-0.010,0.250,0.000,1,1,1,1,-0.002,-0.004,0.031,-0.184,0.001,0.001,0.000,0.000,0.184,0.001,0.000,0
20260703_202842,case01_baseline_boxes,6,294.5,1.000,15.135,559.997,-1.437,747.089,-10.694,0.000,0.936,38.645,-0.041,0.000,-0.028,0.039,-0.032,0.000,0.194,0.025,-84.909,0.000,0.001,-0.157,0.000,-0.002,0.000,0.000,0.000,0.000,-0.317,-0.011,0.249,0.000,1,1,1,1,-0.002,-0.004,0.031,-0.184,0.002,0.002,0.000,0.000,0.184,0.002,0.000,0
20260703_202842,case01_baseline_boxes,6,294.5,1.000,15.239,558.882,-1.437,747.186,-10.697,0.000,0.933,38.656,-0.034,0.000,-0.025,0.031,-0.028,0.000,0.194,0.025,-84.923,0.000,-0.001,-0.143,0.000,-0.002,0.000,0.000,-0.001,0.000,-0.316,-0.011,0.249,0.000,1,1,1,1,-0.002,-0.004,0.031,-0.183,0.001,0.001,0.000,0.000,0.183,0.001,0.000,0
20260703_202842,case01_baseline_boxes,6,294.5,1.000,15.347,557.724,-1.437,747.287,-10.728,0.000,0.933,38.766,-0.307,0.000,-0.003,0.306,-0.030,0.001,0.194,0.025,-84.938,0.001,0.000,-0.154,0.000,-0.003,0.000,0.000,-0.008,0.002,-0.350,-0.011,0.252,0.000,1,1,1,1,0.001,0.004,0.038,0.223,0.003,0.003,-0.001,-0.001,0.223,0.003,0.000,0
20260703_202842,case01_baseline_boxes,6,294.5,1.000,15.455,556.568,-1.437,747.388,-10.704,0.000,0.928,38.679,0.238,0.000,-0.053,-0.241,-0.032,0.000,0.194,0.025,-84.954,0.001,-0.001,-0.155,0.000,-0.002,0.000,-0.001,0.007,-0.002,-0.352,-0.011,0.248,0.000,1,1,1,1,-0.002,-0.004,0.031,-0.183,0.002,0.002,0.000,0.000,0.183,0.002,0.000,0
20260703_202842,case01_baseline_boxes,6,294.5,1.000,15.563,555.412,-1.437,747.488,-10.734,0.000,0.928,38.788,-0.304,0.000,-0.003,0.303,-0.030,0.001,0.194,0.025,-84.970,0.002,0.000,-0.157,0.000,-0.003,0.000,0.000,-0.008,0.002,-0.351,-0.011,0.251,0.000,1,1,1,1,0.001,0.004,0.038,0.223,0.002,0.002,-0.001,-0.001,0.223,0.002,0.000,0
20260703_202842,case01_baseline_boxes,6,294.5,1.000,15.671,554.255,-1.437,747.587,-10.711,0.000,0.922,38.701,0.239,0.000,-0.054,-0.243,-0.033,0.000,0.194,0.025,-84.986,0.001,0.000,-0.162,0.000,-0.002,0.000,0.000,0.007,-0.002,-0.354,-0.011,0.247,0.000,1,1,1,1,-0.002,-0.004,0.030,-0.182,0.002,0.002,0.000,0.000,0.182,0.002,0.000,0
20260703_202842,case01_baseline_boxes,6,294.5,1.000,15.779,553.098,-1.437,747.687,-10.713,0.000,0.920,38.710,-0.028,0.000,-0.026,0.026,-0.029,0.000,0.195,0.025,-85.002,0.002,-0.001,-0.161,0.000,-0.002,0.000,0.000,0.000,0.000,-0.348,-0.012,0.247,0.000,1,1,1,1,-0.002,-0.004,0.030,-0.182,0.002,0.002,0.000,0.000,0.182,0.002,0.000,0
20260703_202842,case01_baseline_boxes,6,294.5,1.000,15.879,552.023,-1.437,747.779,-10.716,0.000,0.917,38.719,-0.027,0.000,-0.027,0.025,-0.030,0.000,0.195,0.025,-85.017,0.002,0.000,-0.154,0.000,-0.002,0.000,0.000,0.000,0.000,-0.343,-0.012,0.246,0.000,1,1,1,1,-0.002,-0.004,0.030,-0.182,0.002,0.002,0.000,0.000,0.182,0.002,0.000,0
20260703_202842,case01_baseline_boxes,6,294.5,1.000,15.987,550.861,-1.437,747.878,-10.746,0.000,0.916,38.826,-0.299,0.000,-0.007,0.297,-0.033,0.001,0.195,0.025,-85.034,0.003,0.000,-0.170,0.000,-0.003,0.000,0.000,-0.008,0.002,-0.345,-0.012,0.250,0.000,1,1,1,1,0.001,0.004,0.038,0.221,0.002,0.002,0.000,0.000,0.221,0.002,0.000,0
20260703_202842,case01_baseline_boxes,6,294.5,1.000,16.087,549.786,-1.437,747.970,-10.749,0.000,0.913,38.834,-0.025,0.000,-0.029,0.023,-0.031,0.000,0.195,0.025,-85.050,0.003,0.000,-0.159,0.000,-0.003,0.000,0.000,0.000,0.000,-0.342,-0.011,0.250,0.000,1,1,1,1,0.001,0.004,0.038,0.221,0.002,0.002,0.000,0.000,0.221,0.002,0.000,0
20260703_202842,case01_baseline_boxes,6,294.5,1.000,16.191,548.676,-1.437,748.064,-10.724,0.000,0.908,38.745,0.242,0.000,-0.056,-0.246,-0.035,0.000,0.196,0.025,-85.067,0.003,0.000,-0.166,0.000,-0.002,0.000,0.000,0.007,-0.002,-0.341,-0.011,0.245,0.000,1,1,1,1,-0.002,-0.004,0.030,-0.181,0.001,0.001,0.000,0.000,0.181,0.001,0.000,0
20260703_202842,case01_baseline_boxes,6,294.5,1.000,16.295,547.543,-1.099,748.149,-10.984,0.225,0.722,39.635,-2.594,2.254,-1.861,2.492,-2.111,2.146,-0.823,-1.817,-84.988,-10.188,-18.421,0.786,0.016,-0.008,-0.085,0.157,-0.051,-0.847,-0.741,-0.024,0.190,0.000,1,1,0,1,-0.070,0.532,0.000,0.125,-0.007,0.069,0.000,-0.024,0.532,0.069,0.042,0
20260703_202842,case01_baseline_boxes,6,294.5,1.000,16.407,546.375,-0.990,748.241,-10.347,-0.046,0.810,37.362,6.370,-2.719,0.886,-6.405,1.492,-2.344,-1.295,-3.093,-84.990,-4.717,-12.757,-0.023,0.026,-0.011,-0.144,0.103,-0.032,-0.587,-0.816,-0.027,0.305,0.000,0,1,0,1,0.000,0.104,0.000,0.072,0.000,0.013,0.000,0.001,0.104,0.013,0.000,0
20260703_202842,case01_baseline_boxes,6,294.5,1.000,16.519,545.227,-1.042,748.331,-10.272,-0.693,0.806,37.175,0.751,-6.465,-0.042,-1.182,0.194,-6.398,-1.525,-3.839,-85.024,-2.307,-7.457,-0.339,0.025,-0.003,-0.098,-0.008,0.082,0.457,-0.665,-0.022,0.305,0.000,0,0,1,1,0.000,0.000,0.123,-0.382,0.000,0.000,0.000,0.000,0.382,0.000,0.000,0
20260703_202842,case01_baseline_boxes,6,294.5,1.000,16.627,544.116,-1.126,748.419,-10.302,-0.819,0.814,37.319,-0.301,-1.262,0.078,0.212,0.091,-1.279,-1.729,-4.259,-85.025,-2.032,-4.199,-0.009,0.028,-0.002,-0.044,0.034,0.001,0.537,-0.655,-0.022,0.315,0.000,0,0,1,1,0.000,0.000,0.053,0.423,0.000,0.000,-0.001,-0.001,0.423,0.001,0.000,0
20260703_202842,case01_baseline_boxes,6,294.5,1.000,16.727,543.100,-1.115,748.505,-10.120,0.225,0.861,36.572,1.820,10.441,0.475,-1.028,0.304,10.555,-1.772,-4.067,-85.046,-0.435,1.920,-0.208,0.005,-0.004,0.063,-0.237,-0.021,1.070,-0.656,-0.022,0.340,0.000,0,0,1,1,0.000,0.000,0.069,0.247,0.000,0.000,0.002,0.002,0.247,0.002,0.000,0
20260703_202842,case01_baseline_boxes,6,294.5,1.000,16.851,541.847,-1.123,748.611,-10.090,-0.367,0.856,36.479,0.295,-5.919,-0.057,-0.660,0.149,-5.888,-1.755,-3.509,-85.065,0.168,5.572,-0.187,0.004,-0.001,0.095,-0.007,0.039,0.317,-0.770,-0.026,0.335,0.000,0,0,1,1,0.000,0.000,0.062,-0.232,0.000,0.000,0.001,0.001,0.232,0.001,0.000,0
20260703_202842,case01_baseline_boxes,6,294.5,1.000,16.959,540.752,-1.185,748.704,-10.089,-0.768,0.858,36.555,0.016,-4.009,0.020,-0.214,0.142,-4.001,-1.724,-2.845,-85.067,0.312,6.649,-0.025,0.004,0.001,0.120,0.003,0.018,0.258,-1.030,-0.030,0.331,0.000,0,0,1,1,0.000,0.000,0.052,-0.261,0.000,0.000,0.000,0.000,0.261,0.000,0.000,0
20260703_202842,case01_baseline_boxes,6,294.5,1.000,17.071,539.615,-1.293,748.801,-10.082,-1.139,0.863,36.657,0.069,-3.706,0.059,-0.191,0.174,-3.698,-1.682,-1.962,-85.060,0.423,8.829,0.073,0.006,0.003,0.155,0.019,0.016,0.347,-1.308,-0.038,0.326,0.000,0,0,1,1,0.000,0.000,0.039,-0.287,0.000,0.000,-0.001,-0.001,0.287,0.001,0.000,0
20260703_202842,case01_baseline_boxes,6,294.5,1.000,17.179,538.524,-1.427,748.894,-10.070,-1.285,0.863,36.679,0.113,-1.466,-0.006,-0.137,0.045,-1.463,-1.637,-0.910,-85.046,0.445,10.519,0.144,0.007,0.002,0.182,0.004,-0.007,0.266,-1.506,-0.052,0.324,0.000,0,1,1,1,0.000,0.026,0.031,-0.295,0.000,0.025,-0.002,-0.002,0.295,0.025,0.000,0
20260703_202842,case01_baseline_boxes,6,294.5,1.000,17.287,537.421,-1.521,748.986,-10.280,0.367,0.897,37.170,-2.091,16.526,0.337,2.099,-0.284,16.526,-1.528,0.048,-85.078,1.091,9.582,-0.324,-0.044,0.004,0.054,-0.504,0.024,-1.275,-1.569,-0.052,0.329,0.000,1,1,1,1,0.000,-0.548,0.044,0.369,0.008,0.008,-0.001,-0.001,0.548,0.008,0.000,0
20260703_202842,case01_baseline_boxes,6,294.5,1.000,17.391,536.358,-1.475,749.076,-10.264,0.421,0.871,37.114,0.155,0.533,-0.253,-0.178,-0.250,0.527,-1.216,0.260,-85.090,3.126,2.111,-0.117,-0.051,-0.007,0.033,-0.078,-0.113,-0.212,-1.422,-0.047,0.314,0.000,1,1,1,1,0.000,0.141,0.059,-0.151,0.008,0.009,-0.006,-0.006,0.151,0.009,0.000,0
20260703_202842,case01_baseline_boxes,6,294.5,1.000,17.503,535.203,-1.433,749.172,-10.302,0.306,0.877,37.236,-0.376,-1.144,0.053,0.387,0.038,-1.141,-0.858,0.394,-85.145,3.572,1.347,-0.549,-0.056,-0.010,0.018,-0.042,-0.035,-0.152,-1.185,-0.039,0.310,0.000,1,1,1,1,0.000,-0.004,0.063,0.063,0.002,0.002,-0.004,-0.004,0.063,0.004,0.000,0
20260703_202842,case01_baseline_boxes,6,294.5,1.000,17.607,534.129,-1.409,749.263,-10.327,0.161,0.883,37.317,-0.253,-1.457,0.069,0.269,0.061,-1.454,-0.514,0.434,-85.205,3.439,0.401,-0.605,-0.058,-0.011,0.006,-0.022,-0.003,-0.119,-1.099,-0.031,0.306,0.000,1,1,1,1,0.000,0.000,0.059,0.035,0.002,0.002,-0.002,-0.002,0.059,0.002,0.000,0
20260703_202842,case01_baseline_boxes,6,294.5,1.000,17.711,533.087,-0.864,749.342,-9.728,0.515,0.825,35.193,5.994,3.539,-0.587,-6.154,-0.218,3.298,-1.595,2.220,-85.601,-10.807,17.860,-3.957,0.002,-0.016,0.098,0.597,-0.052,0.922,-0.605,-0.019,0.387,0.000,0,0,1,1,0.000,0.000,0.156,0.088,0.000,0.000,0.000,0.002,0.156,0.002,0.046,0
20260703_202842,case01_baseline_boxes,6,294.5,1.000,17.811,532.107,-0.772,749.423,-9.689,-0.237,0.782,35.005,0.382,-7.517,-0.431,-0.018,-0.213,-7.536,-1.428,3.008,-85.699,1.671,7.875,-0.988,-0.014,-0.015,0.095,-0.158,0.010,-0.025,-0.352,-0.011,0.396,0.000,0,1,0,1,0.000,0.001,0.000,0.241,0.000,-0.006,0.000,0.051,0.241,0.051,0.000,0
20260703_202842,case01_baseline_boxes,6,294.5,1.000,17.911,531.139,-0.831,749.502,-9.647,-0.884,0.789,34.990,0.423,-6.463,0.072,-0.027,0.249,-6.472,-1.293,3.449,-85.766,1.352,4.418,-0.670,-0.022,-0.012,0.056,-0.084,0.029,-0.395,-0.313,-0.010,0.400,0.000,1,1,0,0,0.001,0.001,0.000,0.000,-0.002,-0.002,0.000,0.000,0.001,0.002,0.000,0
20260703_202842,case01_baseline_boxes,6,294.5,1.000,18.023,530.062,-0.949,749.589,-9.651,-1.221,0.797,35.138,-0.041,-3.371,0.086,0.259,0.148,-3.359,-1.117,3.600,-85.827,1.760,1.509,-0.605,-0.029,-0.011,-0.011,-0.069,0.013,-0.670,-0.230,-0.008,0.394,0.000,1,1,0,0,0.000,-0.010,0.000,0.000,-0.001,-0.001,0.000,0.000,0.010,0.001,0.000,0
20260703_202842,case01_baseline_boxes,6,294.5,1.000,18.123,529.089,-1.046,749.671,-9.692,-1.375,0.813,35.362,-0.409,-1.542,0.159,0.503,0.152,-1.515,-0.868,3.152,-85.843,2.488,-4.485,-0.161,-0.043,-0.007,-0.082,-0.142,0.031,-0.705,-0.182,-0.006,0.383,0.000,1,1,0,0,0.000,-0.108,0.000,0.000,0.001,0.001,0.000,0.000,0.108,0.001,0.000,0
20260703_202842,case01_baseline_boxes,6,294.5,1.000,18.227,528.081,-1.181,749.754,-9.675,-1.718,0.808,35.494,0.172,-3.436,-0.049,-0.033,-0.001,-3.440,-0.588,2.355,-85.860,2.802,-7.971,-0.167,-0.049,-0.007,-0.133,-0.060,0.006,-0.511,-0.217,-0.007,0.375,0.000,1,1,0,0,-0.003,-0.297,0.000,0.000,0.001,0.001,0.000,0.000,0.297,0.001,0.000,0
20260703_202842,case01_baseline_boxes,6,294.5,1.000,18.333,527.065,-1.361,749.838,-9.706,-2.052,0.808,35.832,-0.311,-3.336,-0.005,0.384,-0.009,-3.328,-0.308,1.267,-85.883,2.801,-10.875,-0.233,-0.056,-0.007,-0.190,-0.061,-0.004,-0.569,-0.128,-0.004,0.371,0.000,1,1,0,0,0.005,0.305,0.000,0.000,0.001,0.001,0.000,0.000,0.305,0.001,0.000,0
20260703_202842,case01_baseline_boxes,6,294.5,1.000,18.439,526.015,-1.542,749.923,-10.119,-1.319,0.802,36.850,-4.132,7.334,-0.057,4.104,-0.361,7.341,-0.059,0.102,-85.896,2.485,-11.651,-0.129,-0.048,0.006,-0.173,0.072,0.130,0.165,-0.018,-0.001,0.323,0.000,1,1,1,1,-0.009,0.235,0.315,-0.457,0.003,0.003,0.000,0.000,0.457,0.003,0.000,0
20260703_202842,case01_baseline_boxes,6,294.5,1.000,18.551,524.888,-1.512,750.010,-10.033,0.540,0.778,36.281,0.858,18.588,-0.244,-0.726,-0.133,18.595,0.151,-0.455,-85.923,2.105,-5.573,-0.267,-0.034,-0.003,-0.052,0.147,-0.089,1.215,0.097,0.003,0.343,0.000,1,1,1,1,-0.007,-0.004,0.118,-0.244,-0.005,-0.005,0.003,0.003,0.244,0.005,0.000,0
20260703_202842,case01_baseline_boxes,6,294.5,1.000,18.652,523.879,-1.464,750.088,-10.028,0.386,0.770,36.233,0.056,-1.544,-0.077,-0.080,-0.082,-1.543,0.320,-0.675,-85.940,1.689,-2.196,-0.175,-0.030,-0.001,-0.018,0.035,0.019,0.334,0.185,0.006,0.343,0.000,1,1,1,1,-0.008,-0.004,0.030,-0.261,-0.004,-0.004,0.002,0.002,0.261,0.004,0.000,0
20260703_202842,case01_baseline_boxes,6,294.5,1.000,18.759,522.797,-1.433,750.170,-10.033,0.197,0.767,36.230,-0.049,-1.889,-0.031,0.023,-0.051,-1.890,0.493,-0.706,-85.947,1.728,-0.311,-0.070,-0.026,0.000,0.011,0.037,0.016,0.288,0.271,0.009,0.344,0.000,1,1,1,1,-0.008,-0.004,0.029,-0.237,-0.004,-0.004,0.001,0.001,0.237,0.004,0.000,0
20260703_202842,case01_baseline_boxes,6,294.5,1.000,18.867,521.710,-1.421,750.252,-10.078,0.041,0.769,36.388,-0.458,-1.560,0.021,0.443,-0.030,-1.564,0.652,-0.576,-85.944,1.590,1.300,0.032,-0.022,0.001,0.032,0.045,0.008,0.211,0.322,0.011,0.348,0.000,1,1,1,1,0.000,0.003,0.050,0.277,-0.002,-0.002,0.000,0.000,0.277,0.002,0.000,0
20260703_202842,case01_baseline_boxes,6,294.5,1.000,18.975,520.624,-1.421,750.335,-10.070,-0.029,0.767,36.357,0.085,-0.699,-0.015,-0.090,-0.019,-0.698,0.789,-0.359,-85.930,1.368,2.168,0.142,-0.017,0.004,0.039,0.048,0.024,0.078,0.364,0.011,0.341,0.000,1,1,1,1,-0.003,-0.004,0.036,-0.184,-0.002,-0.002,0.000,0.000,0.184,0.002,0.000,0
20260703_202842,case01_baseline_boxes,6,294.5,1.000,19.079,519.571,-1.425,750.415,-10.099,-0.032,0.767,36.463,-0.294,-0.027,-0.002,0.293,-0.024,-0.027,0.894,-0.134,-85.908,1.049,2.257,0.223,-0.013,0.005,0.037,0.045,0.010,-0.020,0.330,0.011,0.337,0.000,1,1,1,1,-0.002,-0.004,0.038,-0.148,0.000,0.000,0.000,0.000,0.148,0.000,0.000,0
20260703_202842,case01_baseline_boxes,6,294.5,1.000,19.195,518.398,-1.427,750.503,-10.142,0.000,0.765,36.614,-0.423,0.320,-0.025,0.420,-0.049,0.321,0.975,0.079,-85.877,0.814,2.123,0.305,-0.007,0.005,0.027,0.052,0.004,-0.099,0.262,0.009,0.333,0.000,1,1,1,1,-0.001,-0.002,0.042,-0.072,0.001,0.001,0.000,0.000,0.072,0.001,0.000,0
20260703_202842,case01_baseline_boxes,6,294.5,1.000,19.303,517.299,-1.425,750.586,-10.183,0.028,0.761,36.760,-0.410,0.274,-0.041,0.405,-0.066,0.277,1.017,0.211,-85.847,0.421,1.320,0.299,-0.003,0.005,0.016,0.044,-0.003,-0.119,0.169,0.005,0.329,0.000,1,1,1,1,0.000,0.000,0.045,0.053,0.003,0.003,-0.001,-0.001,0.053,0.003,0.000,0
20260703_202842,case01_baseline_boxes,6,294.5,1.000,19.419,516.114,-1.421,750.674,-10.215,0.035,0.755,36.873,-0.319,0.071,-0.058,0.313,-0.080,0.074,1.028,0.274,-85.818,0.112,0.634,0.293,0.001,0.004,0.004,0.040,-0.006,-0.114,0.066,0.002,0.324,0.000,1,1,1,1,0.000,0.000,0.045,0.032,0.003,0.003,-0.001,-0.001,0.045,0.003,0.000,0
20260703_202842,case01_baseline_boxes,6,294.5,1.000,19.527,515.008,-1.418,750.755,-10.244,0.021,0.749,36.978,-0.299,-0.140,-0.060,0.294,-0.085,-0.137,1.011,0.271,-85.796,-0.179,-0.034,0.221,0.004,0.003,-0.005,0.035,-0.009,-0.088,-0.017,-0.001,0.320,0.000,1,1,1,1,0.000,0.000,0.044,0.034,0.003,0.003,-0.001,-0.001,0.044,0.003,0.000,0
20260703_202842,case01_baseline_boxes,6,294.5,1.000,19.627,513.982,-1.417,750.830,-10.268,-0.002,0.743,37.062,-0.238,-0.232,-0.056,0.234,-0.077,-0.229,0.973,0.230,-85.781,-0.376,-0.408,0.148,0.007,0.002,-0.010,0.029,-0.010,-0.051,-0.116,-0.004,0.316,0.000,1,1,1,1,0.000,0.000,0.043,0.033,0.004,0.004,-0.001,-0.001,0.043,0.004,0.000,0
20260703_202842,case01_baseline_boxes,6,294.5,1.000,19.728,512.952,-1.419,750.904,-10.289,-0.026,0.738,37.136,-0.208,-0.236,-0.055,0.204,-0.074,-0.234,0.918,0.169,-85.772,-0.551,-0.607,0.092,0.010,0.001,-0.012,0.026,-0.010,-0.024,-0.196,-0.007,0.313,0.000,1,1,1,1,0.000,0.000,0.042,0.031,0.004,0.004,-0.001,-0.001,0.042,0.004,0.000,0
20260703_202842,case01_baseline_boxes,6,294.5,1.000,19.835,511.845,-1.422,750.983,-10.309,-0.044,0.732,37.206,-0.200,-0.181,-0.060,0.195,-0.077,-0.179,0.842,0.098,-85.768,-0.754,-0.710,0.034,0.013,0.000,-0.012,0.026,-0.011,0.000,-0.273,-0.009,0.310,0.000,1,1,1,1,0.000,0.000,0.040,0.030,0.004,0.004,-0.001,-0.001,0.040,0.004,0.000,0
20260703_202842,case01_baseline_boxes,6,294.5,1.000,19.943,510.727,-1.428,751.062,-10.327,-0.050,0.726,37.268,-0.176,-0.058,-0.061,0.171,-0.075,-0.057,0.753,0.034,-85.771,-0.899,-0.643,-0.028,0.015,-0.001,-0.010,0.022,-0.010,0.019,-0.359,-0.011,0.308,0.000,1,1,1,1,0.000,0.000,0.039,0.029,0.004,0.004,-0.001,-0.001,0.039,0.004,0.000,0
20260703_202842,case01_baseline_boxes,6,294.5,1.000,20.051,509.615,-1.433,751.140,-10.343,-0.044,0.720,37.324,-0.161,0.055,-0.059,0.156,-0.070,0.056,0.653,-0.014,-85.780,-0.999,-0.480,-0.085,0.016,-0.002,-0.007,0.017,-0.009,0.030,-0.413,-0.014,0.306,0.000,1,1,1,1,0.000,0.000,0.039,0.028,0.004,0.004,-0.001,-0.001,0.039,0.004,0.000,0
20260703_202842,case01_baseline_boxes,6,294.5,1.000,20.155,508.541,-1.437,751.215,-10.357,-0.033,0.715,37.372,-0.138,0.113,-0.051,0.134,-0.060,0.113,0.550,-0.042,-85.792,-1.029,-0.278,-0.128,0.017,-0.003,-0.004,0.010,-0.007,0.029,-0.445,-0.015,0.304,0.000,1,1,1,1,0.000,0.000,0.039,0.028,0.004,0.004,0.000,0.000,0.039,0.004,0.000,0
20260703_202842,case01_baseline_boxes,6,294.5,1.000,20.259,507.461,-1.440,751.290,-10.370,-0.020,0.710,37.420,-0.136,0.132,-0.049,0.132,-0.058,0.132,0.443,-0.052,-85.809,-1.065,-0.100,-0.168,0.018,-0.003,-0.002,0.004,-0.006,0.027,-0.466,-0.016,0.302,0.000,1,1,1,1,0.000,0.000,0.039,0.028,0.003,0.003,0.000,0.000,0.039,0.003,0.000,0
20260703_202842,case01_baseline_boxes,6,294.5,1.000,20.363,506.384,-1.441,751.364,-10.385,-0.007,0.705,37.472,-0.149,0.129,-0.047,0.145,-0.057,0.129,0.338,-0.047,-85.829,-1.056,0.049,-0.200,0.018,-0.004,0.001,-0.002,-0.005,0.023,-0.535,-0.016,0.300,0.000,1,1,1,1,0.000,0.000,0.040,0.027,0.004,0.004,0.000,0.000,0.040,0.004,0.000,0
20260703_202842,case01_baseline_boxes,6,294.5,1.000,20.487,505.090,-1.441,751.451,-10.401,0.002,0.701,37.530,-0.163,0.092,-0.041,0.160,-0.053,0.092,0.216,-0.028,-85.857,-1.218,0.192,-0.273,0.017,-0.004,0.002,-0.010,-0.004,0.015,-0.552,-0.017,0.297,0.000,1,1,1,1,0.000,0.000,0.040,0.027,0.003,0.003,0.000,0.000,0.040,0.003,0.000,0
20260703_202842,case01_baseline_boxes,6,294.5,1.000,20.603,503.882,-1.441,751.533,-10.418,0.006,0.698,37.588,-0.165,0.035,-0.030,0.162,-0.041,0.035,0.112,-0.004,-85.884,-1.041,0.239,-0.278,0.015,-0.004,0.003,-0.016,-0.003,0.005,-0.517,-0.017,0.295,0.000,1,1,1,1,0.000,0.000,0.041,0.027,0.002,0.002,0.000,0.000,0.041,0.002,0.000,0
20260703_202842,case01_baseline_boxes,6,294.5,1.000,20.707,502.797,-1.440,751.606,-10.432,0.005,0.696,37.637,-0.137,-0.006,-0.017,0.136,-0.027,-0.006,0.028,0.017,-85.911,-0.833,0.211,-0.261,0.013,-0.004,0.002,-0.018,-0.001,-0.002,-0.553,-0.018,0.293,0.000,1,1,1,1,0.000,0.000,0.041,0.027,0.003,0.003,0.000,0.000,0.041,0.003,0.000,0
20260703_202842,case01_baseline_boxes,6,294.5,1.000,20.811,501.711,-1.440,751.678,-10.447,0.002,0.695,37.691,-0.150,-0.028,-0.012,0.149,-0.023,-0.028,-0.043,0.035,-85.937,-0.714,0.174,-0.269,0.011,-0.005,0.002,-0.023,-0.001,-0.007,-0.545,-0.018,0.291,0.000,1,1,1,1,0.000,0.000,0.041,0.028,0.003,0.003,0.000,0.000,0.041,0.003,0.000,0
20260703_202842,case01_baseline_boxes,6,294.5,1.000,20.923,500.545,-1.440,751.756,-10.461,-0.001,0.694,37.742,-0.144,-0.035,-0.009,0.143,-0.019,-0.035,-0.105,0.047,-85.967,-0.620,0.123,-0.294,0.009,-0.005,0.001,-0.025,-0.001,-0.009,-0.539,-0.018,0.289,0.000,1,1,1,1,0.000,0.000,0.041,0.025,0.002,0.002,0.000,0.000,0.041,0.002,0.000,0
20260703_202842,case01_baseline_boxes,6,294.5,1.000,21.031,499.415,-1.440,751.832,-10.475,-0.004,0.693,37.793,-0.143,-0.029,-0.007,0.142,-0.017,-0.029,-0.150,0.052,-85.996,-0.449,0.051,-0.288,0.006,-0.005,0.000,-0.025,-0.001,-0.009,-0.532,-0.018,0.287,0.000,1,1,1,1,0.000,0.000,0.041,0.029,0.002,0.002,0.000,0.000,0.041,0.002,0.000,0
